DeviceTag: Brazo,FirmwareVersion: 3.0.0,AppVersion: 2023.6.0,SyncStatus: Unknown (Synced/Un-synced),OutputRate: 60,FilterProfile: Unknown,Measurement Mode: Sensor fusion Mode - Extended (Euler),StartTime: 2025-10-19 18:58:43.289,© Movella Technologies B.V. 2005-2025
SampleTimeFine,Quat_W,Quat_X,Quat_Y,Quat_Z,FreeAcc_X,FreeAcc_Y,FreeAcc_Z,Status
23427831,0.6459,-0.0052,-0.0131,0.7633,-0.0041,0.0112,-0.0449,0
23427997,0.6459,-0.0051,-0.0129,0.7633,-0.0082,0.0228,-0.0380,0
23428164,0.6458,-0.0049,-0.0129,0.7634,0.0066,0.0228,-0.0462,0
23428331,0.6455,-0.0047,-0.0130,0.7636,0.0042,0.0095,-0.0369,0
23428497,0.6456,-0.0046,-0.0129,0.7635,0.0209,0.0154,-0.0375,0
23428664,0.6455,-0.0046,-0.0129,0.7636,0.0038,0.0042,-0.0563,0
23428831,0.6454,-0.0046,-0.0128,0.7637,0.0213,0.0112,-0.0336,0
23428997,0.6453,-0.0046,-0.0128,0.7638,0.0211,0.0075,-0.0372,0
23429164,0.6453,-0.0046,-0.0127,0.7638,0.0115,0.0058,-0.0266,0
23429331,0.6452,-0.0046,-0.0126,0.7639,0.0198,0.0051,-0.0353,0
23429497,0.6451,-0.0046,-0.0125,0.7640,0.0161,0.0132,-0.0505,0
23429664,0.6451,-0.0046,-0.0123,0.7640,0.0141,0.0235,-0.0265,0
23429831,0.6451,-0.0046,-0.0122,0.7640,0.0193,0.0290,-0.0521,0
23429997,0.6452,-0.0046,-0.0121,0.7639,0.0307,0.0179,-0.0295,0
23430164,0.6452,-0.0046,-0.0120,0.7639,0.0411,0.0199,-0.0399,0
23430331,0.6452,-0.0046,-0.0119,0.7639,0.0391,0.0181,-0.0407,0
23430497,0.6452,-0.0046,-0.0118,0.7639,0.0392,0.0266,-0.0329,0
23430664,0.6452,-0.0046,-0.0117,0.7639,0.0315,0.0252,-0.0493,0
23430831,0.6453,-0.0046,-0.0116,0.7639,0.0268,0.0288,-0.0544,0
23430997,0.6453,-0.0046,-0.0115,0.7639,0.0254,0.0322,-0.0475,0
23431164,0.6453,-0.0046,-0.0114,0.7639,0.0361,0.0275,-0.0521,0
23431331,0.6453,-0.0046,-0.0113,0.7638,0.0315,0.0261,-0.0409,0
23431497,0.6453,-0.0046,-0.0112,0.7638,0.0423,0.0331,-0.0338,0
23431664,0.6452,-0.0046,-0.0110,0.7640,0.0452,0.0379,-0.0305,0
23431831,0.6452,-0.0046,-0.0109,0.7639,0.0341,0.0491,-0.0656,0
23431997,0.6452,-0.0046,-0.0108,0.7639,0.0459,0.0473,-0.0372,0
23432164,0.6452,-0.0046,-0.0107,0.7639,0.0495,0.0399,-0.0340,0
23432331,0.6452,-0.0046,-0.0106,0.7640,0.0580,0.0321,-0.0414,0
23432497,0.6452,-0.0045,-0.0105,0.7640,0.0549,0.0437,-0.0359,0
23432664,0.6452,-0.0045,-0.0104,0.7639,0.0461,0.0531,-0.0282,0
23432831,0.6452,-0.0045,-0.0103,0.7640,0.0440,0.0445,-0.0442,0
23432997,0.6452,-0.0045,-0.0102,0.7639,0.0560,0.0476,-0.0586,0
23433164,0.6452,-0.0045,-0.0100,0.7639,0.0592,0.0459,-0.0380,0
23433331,0.6452,-0.0045,-0.0099,0.7639,0.0528,0.0453,-0.0601,0
23433497,0.6452,-0.0045,-0.0098,0.7639,0.0657,0.0434,-0.0258,0
23433664,0.6452,-0.0045,-0.0097,0.7639,0.0453,0.0539,-0.0293,0
23433831,0.6452,-0.0045,-0.0096,0.7639,0.0744,0.0464,-0.0560,0
23433997,0.6452,-0.0045,-0.0094,0.7639,0.0693,0.0478,-0.0480,0
23434164,0.6452,-0.0045,-0.0093,0.7639,0.0620,0.0626,-0.0220,0
23434331,0.6453,-0.0045,-0.0092,0.7639,0.0765,0.0729,-0.0360,0
23434497,0.6453,-0.0045,-0.0091,0.7639,0.0561,0.0706,-0.0480,0
23434664,0.6453,-0.0045,-0.0090,0.7639,0.0652,0.0677,-0.0638,0
23434831,0.6453,-0.0045,-0.0089,0.7639,0.0645,0.0809,-0.0360,0
23434997,0.6453,-0.0045,-0.0088,0.7639,0.0691,0.0780,-0.0439,0
23435164,0.6453,-0.0045,-0.0086,0.7639,0.0798,0.0623,-0.0278,0
23435331,0.6453,-0.0045,-0.0085,0.7639,0.0901,0.0763,-0.0262,0
23435497,0.6453,-0.0045,-0.0084,0.7639,0.0737,0.0702,-0.0467,0
23435664,0.6454,-0.0044,-0.0083,0.7638,0.0854,0.0844,-0.0403,0
23435831,0.6454,-0.0044,-0.0082,0.7638,0.0770,0.0737,-0.0573,0
23435997,0.6454,-0.0044,-0.0081,0.7638,0.0783,0.0718,-0.0311,0
23436164,0.6454,-0.0044,-0.0080,0.7638,0.0889,0.0720,-0.0333,0
23436331,0.6454,-0.0044,-0.0079,0.7638,0.0821,0.0756,-0.0411,0
23436497,0.6454,-0.0044,-0.0078,0.7638,0.0960,0.0825,-0.0431,0
23436664,0.6454,-0.0044,-0.0077,0.7638,0.0817,0.0760,-0.0641,0
23436831,0.6455,-0.0044,-0.0076,0.7637,0.1104,0.0862,-0.0482,0
23436997,0.6455,-0.0044,-0.0074,0.7638,0.0933,0.0750,-0.0257,0
23437164,0.6455,-0.0044,-0.0073,0.7637,0.0868,0.0953,-0.0556,0
23437331,0.6455,-0.0043,-0.0072,0.7637,0.0898,0.0853,-0.0370,0
23437497,0.6455,-0.0043,-0.0071,0.7637,0.1037,0.0955,-0.0572,0
23437664,0.6455,-0.0043,-0.0070,0.7637,0.1101,0.1021,-0.0260,0
23437831,0.6455,-0.0043,-0.0069,0.7637,0.0996,0.0964,-0.0444,0
23437997,0.6455,-0.0043,-0.0068,0.7637,0.1034,0.0963,-0.0181,0
23438164,0.6455,-0.0043,-0.0067,0.7637,0.1059,0.0900,-0.0305,0
23438331,0.6455,-0.0043,-0.0066,0.7637,0.0956,0.0953,-0.0479,0
23438497,0.6455,-0.0043,-0.0065,0.7637,0.0961,0.0923,-0.0321,0
23438664,0.6456,-0.0043,-0.0064,0.7637,0.1108,0.0953,-0.0432,0
23438831,0.6456,-0.0043,-0.0062,0.7637,0.1027,0.0982,-0.0222,0
23438997,0.6456,-0.0043,-0.0061,0.7636,0.0928,0.1054,-0.0338,0
23439164,0.6456,-0.0043,-0.0060,0.7636,0.1091,0.0973,-0.0294,0
23439331,0.6456,-0.0043,-0.0059,0.7636,0.1079,0.1060,-0.0317,0
23439498,0.6457,-0.0043,-0.0058,0.7636,0.1179,0.0982,-0.0369,0
23439664,0.6457,-0.0043,-0.0057,0.7636,0.1180,0.1191,-0.0634,0
23439831,0.6457,-0.0043,-0.0056,0.7636,0.1083,0.1155,-0.0319,0
23439998,0.6457,-0.0042,-0.0055,0.7636,0.1091,0.1199,-0.0368,0
23440164,0.6457,-0.0042,-0.0054,0.7636,0.1252,0.1129,-0.0267,0
23440331,0.6457,-0.0042,-0.0053,0.7635,0.1138,0.1115,-0.0457,0
23440498,0.6457,-0.0042,-0.0052,0.7635,0.1144,0.1268,-0.0506,0
23440664,0.6457,-0.0042,-0.0051,0.7635,0.1283,0.1109,-0.0281,0
23440831,0.6458,-0.0042,-0.0051,0.7635,0.1192,0.1193,-0.0316,0
23440998,0.6458,-0.0042,-0.0050,0.7635,0.1260,0.1090,-0.0285,0
23441164,0.6458,-0.0042,-0.0049,0.7635,0.1177,0.1199,-0.0333,0
23441331,0.6458,-0.0042,-0.0047,0.7634,0.1216,0.1166,-0.0559,0
23441498,0.6458,-0.0042,-0.0047,0.7634,0.1281,0.1307,-0.0393,0
23441664,0.6459,-0.0042,-0.0046,0.7634,0.1167,0.1311,-0.0392,0
23441831,0.6459,-0.0042,-0.0045,0.7634,0.1302,0.1317,-0.0297,0
23441998,0.6459,-0.0042,-0.0044,0.7634,0.1423,0.1266,-0.0245,0
23442164,0.6459,-0.0042,-0.0043,0.7634,0.1281,0.1317,-0.0456,0
23442331,0.6459,-0.0042,-0.0042,0.7634,0.1309,0.1258,-0.0515,0
23442498,0.6460,-0.0042,-0.0041,0.7633,0.1152,0.1391,-0.0165,0
23442664,0.6460,-0.0042,-0.0040,0.7633,0.1416,0.1356,-0.0486,0
23442831,0.6460,-0.0042,-0.0039,0.7633,0.1433,0.1305,-0.0266,0
23442998,0.6460,-0.0042,-0.0038,0.7633,0.1461,0.1349,-0.0333,0
23443164,0.6461,-0.0042,-0.0037,0.7633,0.1265,0.1336,-0.0358,0
23443331,0.6461,-0.0041,-0.0037,0.7632,0.1490,0.1403,-0.0399,0
23443498,0.6461,-0.0041,-0.0036,0.7632,0.1430,0.1384,-0.0393,0
23443664,0.6461,-0.0041,-0.0035,0.7632,0.1390,0.1408,-0.0345,0
23443831,0.6461,-0.0041,-0.0034,0.7632,0.1416,0.1521,-0.0488,0
23443998,0.6462,-0.0041,-0.0033,0.7632,0.1356,0.1413,-0.0473,0
23444164,0.6462,-0.0041,-0.0033,0.7632,0.1393,0.1332,-0.0369,0
23444331,0.6462,-0.0041,-0.0032,0.7632,0.1483,0.1357,-0.0401,0
23444498,0.6462,-0.0041,-0.0031,0.7631,0.1285,0.1358,-0.0469,0
23444664,0.6463,-0.0041,-0.0030,0.7631,0.1555,0.1602,-0.0509,0
23444831,0.6463,-0.0041,-0.0030,0.7631,0.1477,0.1512,-0.0263,0
23444998,0.6463,-0.0041,-0.0029,0.7631,0.1514,0.1549,-0.0307,0
23445164,0.6463,-0.0040,-0.0028,0.7630,0.1647,0.1378,-0.0363,0
23445331,0.6464,-0.0040,-0.0028,0.7630,0.1631,0.1647,-0.0423,0
23445498,0.6464,-0.0040,-0.0027,0.7630,0.1502,0.1552,-0.0439,0
23445664,0.6464,-0.0040,-0.0026,0.7630,0.1538,0.1548,-0.0330,0
23445831,0.6465,-0.0040,-0.0026,0.7629,0.1571,0.1655,-0.0458,0
23445998,0.6465,-0.0040,-0.0025,0.7629,0.1469,0.1486,-0.0529,0
23446164,0.6465,-0.0040,-0.0024,0.7629,0.1589,0.1588,-0.0323,0
23446331,0.6466,-0.0040,-0.0024,0.7629,0.1641,0.1605,-0.0716,0
23446498,0.6466,-0.0040,-0.0023,0.7628,0.1575,0.1533,-0.0489,0
23446664,0.6466,-0.0040,-0.0023,0.7628,0.1606,0.1501,-0.0419,0
23446831,0.6466,-0.0040,-0.0022,0.7628,0.1540,0.1681,-0.0524,0
23446998,0.6466,-0.0040,-0.0021,0.7628,0.1480,0.1712,-0.0499,0
23447164,0.6467,-0.0040,-0.0021,0.7627,0.1741,0.1674,-0.0564,0
23447331,0.6467,-0.0040,-0.0020,0.7627,0.1692,0.1570,-0.0478,0
23447498,0.6467,-0.0040,-0.0020,0.7627,0.1650,0.1624,-0.0491,0
23447664,0.6474,-0.0050,-0.0139,0.7620,0.0009,-0.0195,-0.0225,0
23447831,0.6474,-0.0050,-0.0139,0.7620,0.0085,0.0048,-0.0335,0
23447998,0.6474,-0.0050,-0.0139,0.7620,0.0018,-0.0011,-0.0231,0
23448164,0.6473,-0.0050,-0.0139,0.7621,0.0110,-0.0027,-0.0333,0
23448331,0.6473,-0.0050,-0.0139,0.7621,0.0000,-0.0014,-0.0404,0
23448498,0.6473,-0.0050,-0.0139,0.7621,-0.0118,-0.0046,-0.0468,0
23448664,0.6473,-0.0050,-0.0139,0.7621,-0.0046,-0.0010,-0.0282,0
23448831,0.6473,-0.0050,-0.0139,0.7621,-0.0015,0.0032,-0.0370,0
23448998,0.6473,-0.0050,-0.0139,0.7621,0.0014,0.0013,-0.0359,0
23449164,0.6472,-0.0050,-0.0139,0.7621,0.0040,0.0127,-0.0510,0
23449331,0.6472,-0.0050,-0.0139,0.7622,0.0129,-0.0010,-0.0020,0
23449498,0.6472,-0.0050,-0.0139,0.7622,-0.0181,0.0020,-0.0442,0
23449664,0.6472,-0.0050,-0.0139,0.7622,0.0089,0.0066,-0.0377,0
23449831,0.6471,-0.0049,-0.0139,0.7622,0.0090,-0.0145,-0.0332,0
23449998,0.6471,-0.0049,-0.0139,0.7622,0.0003,-0.0031,-0.0359,0
23450164,0.6471,-0.0049,-0.0139,0.7622,-0.0072,0.0021,-0.0262,0
23450331,0.6471,-0.0049,-0.0139,0.7623,-0.0006,0.0017,-0.0304,0
23450498,0.6471,-0.0049,-0.0139,0.7623,0.0093,-0.0049,-0.0399,0
23450664,0.6471,-0.0049,-0.0139,0.7623,0.0071,-0.0061,-0.0247,0
23450831,0.6470,-0.0049,-0.0139,0.7623,0.0003,0.0004,-0.0337,0
23450998,0.6470,-0.0049,-0.0139,0.7623,0.0069,-0.0037,-0.0245,0
23451164,0.6470,-0.0049,-0.0139,0.7623,0.0088,-0.0036,-0.0316,0
23451331,0.6470,-0.0049,-0.0139,0.7623,0.0027,-0.0011,-0.0201,0
23451498,0.6470,-0.0049,-0.0139,0.7623,0.0101,-0.0027,-0.0475,0
23451664,0.6470,-0.0049,-0.0139,0.7623,0.0013,-0.0057,-0.0320,0
23451831,0.6470,-0.0049,-0.0139,0.7624,0.0152,-0.0117,-0.0339,0
23451998,0.6470,-0.0049,-0.0139,0.7624,-0.0042,-0.0162,-0.0345,0
23452164,0.6470,-0.0049,-0.0140,0.7624,0.0061,0.0003,-0.0251,0
23452331,0.6470,-0.0049,-0.0140,0.7624,-0.0111,-0.0053,-0.0297,0
23452498,0.6469,-0.0049,-0.0140,0.7624,0.0012,0.0040,-0.0389,0
23452664,0.6469,-0.0049,-0.0140,0.7624,0.0018,-0.0116,-0.0368,0
23452831,0.6469,-0.0049,-0.0140,0.7624,-0.0073,0.0080,-0.0399,0
23452998,0.6469,-0.0049,-0.0140,0.7624,0.0071,0.0108,-0.0268,0
23453164,0.6469,-0.0049,-0.0140,0.7624,-0.0010,0.0027,-0.0226,0
23453331,0.6469,-0.0049,-0.0140,0.7624,0.0035,-0.0041,-0.0212,0
23453498,0.6469,-0.0049,-0.0140,0.7624,-0.0060,0.0002,-0.0354,0
23453664,0.6469,-0.0049,-0.0140,0.7625,0.0108,-0.0210,-0.0310,0
23453831,0.6469,-0.0049,-0.0140,0.7625,-0.0002,0.0034,-0.0499,0
23453998,0.6469,-0.0049,-0.0140,0.7625,0.0015,0.0071,-0.0372,0
23454164,0.6468,-0.0049,-0.0140,0.7625,-0.0080,-0.0062,-0.0379,0
23454331,0.6468,-0.0049,-0.0140,0.7625,0.0068,-0.0202,-0.0399,0
23454498,0.6468,-0.0049,-0.0140,0.7625,0.0075,0.0019,-0.0230,0
23454664,0.6468,-0.0049,-0.0140,0.7625,-0.0017,-0.0136,-0.0384,0
23454831,0.6468,-0.0049,-0.0139,0.7625,-0.0123,-0.0028,-0.0435,0
23454998,0.6468,-0.0049,-0.0139,0.7625,0.0002,-0.0102,-0.0316,0
23455164,0.6468,-0.0049,-0.0139,0.7625,0.0177,-0.0073,-0.0378,0
23455331,0.6468,-0.0049,-0.0140,0.7625,-0.0075,-0.0055,-0.0306,0
23455498,0.6467,-0.0049,-0.0140,0.7626,0.0044,0.0018,-0.0105,0
23455664,0.6467,-0.0049,-0.0140,0.7626,0.0072,-0.0084,-0.0407,0
23455831,0.6467,-0.0049,-0.0140,0.7626,-0.0049,0.0025,-0.0345,0
23455998,0.6467,-0.0049,-0.0140,0.7626,0.0066,0.0011,-0.0150,0
23456165,0.6467,-0.0049,-0.0140,0.7626,0.0045,-0.0020,-0.0462,0
23456331,0.6467,-0.0049,-0.0140,0.7626,-0.0013,-0.0111,-0.0466,0
23456498,0.6466,-0.0049,-0.0140,0.7626,0.0099,-0.0146,-0.0145,0
23456665,0.6466,-0.0049,-0.0140,0.7627,0.0039,0.0062,-0.0382,0
23456831,0.6466,-0.0049,-0.0140,0.7627,0.0182,0.0035,-0.0296,0
23456998,0.6466,-0.0049,-0.0140,0.7627,0.0140,0.0058,-0.0645,0
23457165,0.6466,-0.0049,-0.0140,0.7627,-0.0052,-0.0115,-0.0344,0
23457331,0.6466,-0.0049,-0.0140,0.7627,0.0075,0.0031,-0.0454,0
23457498,0.6466,-0.0049,-0.0140,0.7627,-0.0002,0.0008,-0.0398,0
23457665,0.6466,-0.0049,-0.0140,0.7627,0.0050,0.0067,-0.0550,0
23457831,0.6466,-0.0049,-0.0140,0.7627,0.0062,-0.0008,-0.0219,0
23457998,0.6466,-0.0049,-0.0140,0.7627,0.0035,-0.0039,-0.0420,0
23458165,0.6466,-0.0049,-0.0140,0.7627,-0.0026,-0.0055,-0.0219,0
23458331,0.6465,-0.0049,-0.0140,0.7627,-0.0049,0.0015,-0.0405,0
23458498,0.6465,-0.0049,-0.0140,0.7627,-0.0008,0.0033,-0.0308,0
23458665,0.6465,-0.0049,-0.0140,0.7628,-0.0107,-0.0016,-0.0374,0
23458831,0.6465,-0.0049,-0.0140,0.7628,0.0073,-0.0044,-0.0455,0
23458998,0.6465,-0.0049,-0.0140,0.7628,0.0094,-0.0058,-0.0300,0
23459165,0.6465,-0.0049,-0.0140,0.7628,0.0109,-0.0045,-0.0477,0
23459331,0.6465,-0.0049,-0.0140,0.7628,0.0101,0.0092,-0.0355,0
23459498,0.6465,-0.0049,-0.0140,0.7628,0.0019,-0.0084,-0.0413,0
23459665,0.6465,-0.0049,-0.0140,0.7628,0.0184,-0.0072,-0.0534,0
23459831,0.6465,-0.0049,-0.0140,0.7628,-0.0011,-0.0077,-0.0453,0
23459998,0.6465,-0.0049,-0.0140,0.7628,0.0219,-0.0162,-0.0544,0
23460165,0.6464,-0.0049,-0.0140,0.7628,0.0060,-0.0051,0.0090,0
23460331,0.6464,-0.0049,-0.0140,0.7628,-0.0005,0.0072,-0.0436,0
23460498,0.6464,-0.0049,-0.0140,0.7628,0.0114,-0.0041,-0.0505,0
23460665,0.6464,-0.0049,-0.0140,0.7629,0.0124,-0.0004,-0.0420,0
23460831,0.6464,-0.0049,-0.0140,0.7629,0.0081,-0.0002,-0.0325,0
23460998,0.6464,-0.0049,-0.0140,0.7629,-0.0013,0.0008,-0.0321,0
23461165,0.6464,-0.0049,-0.0140,0.7629,0.0178,-0.0024,-0.0210,0
23461331,0.6464,-0.0049,-0.0139,0.7629,0.0069,0.0014,-0.0344,0
23461498,0.6464,-0.0049,-0.0139,0.7629,0.0119,-0.0017,-0.0383,0
23461665,0.6464,-0.0048,-0.0139,0.7629,0.0222,-0.0053,-0.0442,0
23461831,0.6464,-0.0049,-0.0139,0.7629,-0.0074,0.0016,-0.0472,0
23461998,0.6463,-0.0048,-0.0139,0.7629,0.0127,-0.0042,-0.0314,0
23462165,0.6463,-0.0048,-0.0139,0.7629,0.0024,-0.0094,-0.0400,0
23462331,0.6463,-0.0049,-0.0139,0.7629,0.0129,-0.0174,-0.0455,0
23462498,0.6463,-0.0048,-0.0139,0.7629,0.0035,-0.0040,-0.0224,0
23462665,0.6463,-0.0048,-0.0139,0.7629,-0.0008,0.0050,-0.0201,0
23462831,0.6463,-0.0048,-0.0139,0.7629,0.0010,0.0035,-0.0469,0
23462998,0.6463,-0.0049,-0.0139,0.7629,0.0065,-0.0007,-0.0459,0
23463165,0.6463,-0.0049,-0.0139,0.7629,-0.0200,-0.0006,-0.0281,0
23463331,0.6463,-0.0049,-0.0139,0.7629,-0.0006,-0.0047,-0.0544,0
23463498,0.6463,-0.0049,-0.0139,0.7630,0.0084,0.0061,-0.0393,0
23463665,0.6463,-0.0049,-0.0139,0.7630,0.0141,-0.0095,-0.0446,0
23463831,0.6463,-0.0049,-0.0139,0.7630,-0.0084,-0.0044,-0.0509,0
23463998,0.6463,-0.0049,-0.0139,0.7630,0.0021,0.0090,-0.0317,0
23464165,0.6463,-0.0048,-0.0139,0.7630,-0.0053,-0.0063,-0.0317,0
23464331,0.6462,-0.0048,-0.0139,0.7630,-0.0050,-0.0029,-0.0441,0
23464498,0.6462,-0.0048,-0.0139,0.7630,0.0054,-0.0007,-0.0235,0
23464665,0.6462,-0.0048,-0.0139,0.7630,0.0019,-0.0126,-0.0444,0
23464831,0.6462,-0.0048,-0.0139,0.7630,-0.0008,-0.0039,-0.0337,0
23464998,0.6462,-0.0049,-0.0139,0.7630,-0.0090,-0.0139,-0.0164,0
23465165,0.6462,-0.0049,-0.0139,0.7630,0.0041,-0.0053,-0.0311,0
23465331,0.6462,-0.0049,-0.0139,0.7630,0.0020,-0.0077,-0.0368,0
23465498,0.6462,-0.0049,-0.0139,0.7630,0.0017,-0.0109,-0.0338,0
23465665,0.6462,-0.0049,-0.0139,0.7630,-0.0030,-0.0113,-0.0423,0
23465831,0.6462,-0.0049,-0.0139,0.7630,-0.0015,-0.0059,-0.0327,0
23465998,0.6462,-0.0049,-0.0139,0.7630,0.0176,0.0092,-0.0355,0
23466165,0.6462,-0.0049,-0.0139,0.7630,-0.0013,0.0005,-0.0416,0
23466331,0.6462,-0.0049,-0.0139,0.7631,-0.0051,-0.0143,-0.0377,0
23466498,0.6462,-0.0049,-0.0139,0.7631,0.0162,0.0028,-0.0312,0
23466665,0.6462,-0.0049,-0.0139,0.7631,-0.0048,0.0025,-0.0402,0
23466831,0.6462,-0.0049,-0.0139,0.7631,0.0033,-0.0072,-0.0376,0
23466998,0.6462,-0.0049,-0.0139,0.7631,0.0023,-0.0023,-0.0339,0
23467165,0.6461,-0.0049,-0.0139,0.7631,0.0080,0.0031,-0.0167,0
23467331,0.6461,-0.0049,-0.0139,0.7631,0.0003,0.0073,-0.0392,0
23467498,0.6461,-0.0049,-0.0139,0.7631,-0.0009,-0.0061,-0.0311,0
23467665,0.6462,-0.0049,-0.0139,0.7630,0.0078,0.0058,-0.0381,0
23467831,0.6462,-0.0049,-0.0139,0.7630,0.0030,0.0013,-0.0352,0
23467998,0.6462,-0.0049,-0.0139,0.7630,-0.0025,0.0081,-0.0256,0
23468165,0.6462,-0.0050,-0.0139,0.7630,-0.0049,0.0001,-0.0326,0
23468331,0.6462,-0.0050,-0.0139,0.7630,-0.0015,-0.0095,-0.0528,0
23468498,0.6462,-0.0050,-0.0139,0.7630,0.0203,-0.0050,-0.0342,0
23468665,0.6462,-0.0050,-0.0139,0.7630,-0.0092,0.0060,-0.0174,0
23468831,0.6462,-0.0050,-0.0139,0.7630,-0.0036,0.0062,-0.0382,0
23468998,0.6462,-0.0050,-0.0139,0.7630,0.0029,-0.0017,-0.0328,0
23469165,0.6462,-0.0050,-0.0139,0.7630,-0.0141,-0.0061,-0.0405,0
23469331,0.6462,-0.0050,-0.0139,0.7630,-0.0078,0.0006,-0.0349,0
23469498,0.6462,-0.0050,-0.0139,0.7631,-0.0038,-0.0017,-0.0593,0
23469665,0.6462,-0.0050,-0.0139,0.7631,-0.0118,0.0067,-0.0229,0
23469831,0.6462,-0.0050,-0.0139,0.7631,-0.0139,0.0108,-0.0290,0
23469998,0.6462,-0.0050,-0.0139,0.7631,-0.0042,0.0010,-0.0349,0
23470165,0.6462,-0.0050,-0.0139,0.7631,-0.0004,0.0003,-0.0228,0
23470331,0.6461,-0.0050,-0.0139,0.7631,-0.0009,0.0016,-0.0366,0
23470498,0.6461,-0.0050,-0.0139,0.7631,-0.0048,0.0051,-0.0171,0
23470665,0.6461,-0.0049,-0.0139,0.7631,0.0087,-0.0055,-0.0503,0
23470831,0.6461,-0.0049,-0.0139,0.7631,-0.0006,0.0112,-0.0502,0
23470998,0.6461,-0.0049,-0.0139,0.7631,0.0051,-0.0053,-0.0272,0
23471165,0.6461,-0.0049,-0.0139,0.7631,-0.0041,0.0044,-0.0555,0
23471331,0.6461,-0.0049,-0.0139,0.7631,-0.0002,0.0017,-0.0294,0
23471498,0.6461,-0.0049,-0.0139,0.7631,0.0003,0.0063,-0.0408,0
23471665,0.6461,-0.0049,-0.0139,0.7631,-0.0027,-0.0060,-0.0230,0
23471831,0.6461,-0.0049,-0.0139,0.7631,-0.0015,-0.0062,-0.0476,0
23471998,0.6461,-0.0049,-0.0139,0.7631,0.0020,-0.0022,-0.0346,0
23472165,0.6461,-0.0049,-0.0139,0.7631,0.0075,-0.0096,-0.0450,0
23472331,0.6461,-0.0049,-0.0139,0.7631,-0.0119,0.0014,-0.0243,0
23472498,0.6461,-0.0049,-0.0139,0.7631,-0.0054,-0.0056,-0.0249,0
23472665,0.6461,-0.0049,-0.0139,0.7631,0.0000,-0.0012,-0.0526,0
23472832,0.6461,-0.0049,-0.0139,0.7631,-0.0030,0.0106,-0.0366,0
23472998,0.6461,-0.0049,-0.0139,0.7631,-0.0014,0.0044,-0.0399,0
23473165,0.6461,-0.0049,-0.0139,0.7631,-0.0049,-0.0089,-0.0401,0
23473332,0.6461,-0.0049,-0.0139,0.7631,0.0155,-0.0025,-0.0269,0
23473498,0.6461,-0.0049,-0.0139,0.7631,-0.0174,-0.0031,-0.0305,0
23473665,0.6461,-0.0049,-0.0139,0.7631,-0.0019,0.0009,-0.0380,0
23473832,0.6461,-0.0049,-0.0139,0.7631,0.0013,-0.0038,-0.0406,0
23473998,0.6461,-0.0049,-0.0139,0.7632,-0.0020,-0.0012,-0.0341,0
23474165,0.6460,-0.0049,-0.0139,0.7632,0.0087,-0.0015,-0.0421,0
23474332,0.6461,-0.0049,-0.0139,0.7631,0.0127,-0.0031,-0.0360,0
23474498,0.6461,-0.0049,-0.0139,0.7632,0.0030,0.0059,-0.0359,0
23474665,0.6460,-0.0049,-0.0139,0.7632,0.0108,0.0012,-0.0394,0
23474832,0.6460,-0.0049,-0.0139,0.7632,-0.0036,-0.0021,-0.0446,0
23474998,0.6460,-0.0049,-0.0139,0.7632,-0.0021,-0.0068,-0.0003,0
23475165,0.6460,-0.0049,-0.0139,0.7632,-0.0123,-0.0094,-0.0194,0
23475332,0.6460,-0.0049,-0.0139,0.7632,-0.0150,-0.0022,-0.0167,0
23475498,0.6460,-0.0049,-0.0139,0.7632,0.0043,-0.0062,-0.0413,0
23475665,0.6460,-0.0049,-0.0139,0.7632,-0.0122,-0.0067,-0.0305,0
23475832,0.6460,-0.0049,-0.0139,0.7632,0.0018,-0.0142,-0.0247,0
23475998,0.6460,-0.0049,-0.0139,0.7632,0.0042,0.0100,-0.0398,0
23476165,0.6460,-0.0049,-0.0139,0.7632,-0.0036,-0.0118,-0.0317,0
23476332,0.6460,-0.0049,-0.0139,0.7632,-0.0046,-0.0112,-0.0456,0
23476498,0.6460,-0.0049,-0.0139,0.7632,-0.0078,0.0048,-0.0355,0
23476665,0.6460,-0.0049,-0.0139,0.7632,-0.0032,-0.0056,-0.0023,0
23476832,0.6460,-0.0049,-0.0139,0.7632,0.0137,0.0026,-0.0235,0
23476998,0.6460,-0.0049,-0.0139,0.7632,0.0045,-0.0026,-0.0175,0
23477165,0.6460,-0.0049,-0.0139,0.7632,0.0014,-0.0055,-0.0289,0
23477332,0.6460,-0.0049,-0.0139,0.7632,-0.0029,-0.0077,-0.0222,0
23477498,0.6460,-0.0049,-0.0139,0.7632,0.0004,-0.0058,-0.0435,0
23477665,0.6460,-0.0049,-0.0139,0.7632,0.0027,-0.0004,-0.0475,0
23477832,0.6460,-0.0049,-0.0138,0.7632,-0.0015,-0.0008,-0.0484,0
23477998,0.6460,-0.0049,-0.0138,0.7632,0.0005,-0.0156,-0.0374,0
23478165,0.6460,-0.0049,-0.0138,0.7632,0.0105,0.0026,-0.0377,0
23478332,0.6460,-0.0049,-0.0138,0.7632,0.0124,-0.0096,-0.0661,0
23478498,0.6460,-0.0049,-0.0138,0.7632,-0.0044,-0.0039,-0.0287,0
23478665,0.6460,-0.0049,-0.0138,0.7632,0.0147,0.0018,-0.0377,0
23478832,0.6460,-0.0049,-0.0139,0.7632,0.0101,-0.0025,-0.0449,0
23478998,0.6460,-0.0049,-0.0139,0.7632,0.0165,0.0128,-0.0273,0
23479165,0.6460,-0.0049,-0.0139,0.7632,-0.0026,-0.0041,-0.0559,0
23479332,0.6460,-0.0049,-0.0139,0.7632,-0.0111,0.0067,-0.0392,0
23479498,0.6460,-0.0049,-0.0139,0.7632,-0.0017,0.0038,-0.0818,0
23479665,0.6460,-0.0049,-0.0139,0.7632,0.0007,-0.0068,-0.0584,0
23479832,0.6460,-0.0049,-0.0139,0.7632,0.0030,-0.0128,-0.0413,0
23479998,0.6460,-0.0049,-0.0139,0.7632,0.0068,0.0104,-0.0376,0
23480165,0.6460,-0.0049,-0.0139,0.7632,0.0135,-0.0065,-0.0242,0
23480332,0.6460,-0.0050,-0.0139,0.7632,-0.0037,0.0026,-0.0349,0
23480498,0.6460,-0.0050,-0.0139,0.7632,0.0066,-0.0032,-0.0474,0
23480665,0.6460,-0.0050,-0.0139,0.7632,0.0052,-0.0016,-0.0455,0
23480832,0.6460,-0.0050,-0.0139,0.7632,-0.0042,-0.0058,-0.0398,0
23480998,0.6460,-0.0050,-0.0139,0.7632,-0.0077,-0.0055,-0.0480,0
23481165,0.6460,-0.0050,-0.0139,0.7632,-0.0019,-0.0101,-0.0269,0
23481332,0.6460,-0.0050,-0.0139,0.7632,-0.0058,-0.0149,-0.0163,0
23481498,0.6460,-0.0050,-0.0139,0.7632,-0.0011,-0.0086,-0.0379,0
23481665,0.6460,-0.0050,-0.0139,0.7632,-0.0032,-0.0116,-0.0591,0
23481832,0.6460,-0.0050,-0.0139,0.7632,-0.0035,-0.0077,-0.0239,0
23481998,0.6460,-0.0050,-0.0139,0.7632,0.0144,0.0004,-0.0260,0
23482165,0.6459,-0.0049,-0.0139,0.7632,-0.0091,-0.0060,-0.0435,0
23482332,0.6459,-0.0049,-0.0139,0.7632,-0.0056,-0.0114,-0.0509,0
23482498,0.6459,-0.0049,-0.0139,0.7632,-0.0036,0.0021,-0.0361,0
23482665,0.6459,-0.0049,-0.0139,0.7633,0.0054,-0.0047,-0.0475,0
23482832,0.6459,-0.0049,-0.0139,0.7633,0.0021,-0.0041,-0.0253,0
23482998,0.6459,-0.0049,-0.0139,0.7633,-0.0045,-0.0114,-0.0407,0
23483165,0.6459,-0.0049,-0.0139,0.7633,0.0105,-0.0007,-0.0342,0
23483332,0.6459,-0.0050,-0.0139,0.7633,0.0001,-0.0037,-0.0349,0
23483498,0.6459,-0.0050,-0.0139,0.7633,0.0003,0.0016,-0.0260,0
23483665,0.6459,-0.0050,-0.0139,0.7633,-0.0121,0.0031,-0.0341,0
23483832,0.6459,-0.0050,-0.0139,0.7633,0.0096,0.0031,-0.0294,0
23483998,0.6459,-0.0050,-0.0139,0.7633,-0.0002,-0.0097,-0.0136,0
23484165,0.6459,-0.0050,-0.0139,0.7633,-0.0039,-0.0017,-0.0445,0
23484332,0.6459,-0.0049,-0.0139,0.7633,-0.0006,-0.0009,-0.0505,0
23484498,0.6459,-0.0049,-0.0139,0.7633,-0.0044,0.0041,-0.0435,0
23484665,0.6459,-0.0049,-0.0139,0.7633,-0.0062,0.0061,-0.0499,0
23484832,0.6459,-0.0049,-0.0139,0.7633,-0.0032,-0.0022,-0.0469,0
23484998,0.6459,-0.0050,-0.0139,0.7633,-0.0018,-0.0001,-0.0432,0
23485165,0.6459,-0.0049,-0.0139,0.7633,0.0085,-0.0016,-0.0422,0
23485332,0.6459,-0.0050,-0.0139,0.7633,0.0094,0.0001,-0.0383,0
23485498,0.6459,-0.0050,-0.0139,0.7633,-0.0073,-0.0026,-0.0417,0
23485665,0.6459,-0.0049,-0.0139,0.7633,0.0053,0.0010,-0.0439,0
23485832,0.6459,-0.0049,-0.0139,0.7633,-0.0054,0.0020,-0.0390,0
23485998,0.6459,-0.0049,-0.0139,0.7633,-0.0108,-0.0118,-0.0505,0
23486165,0.6459,-0.0049,-0.0139,0.7633,-0.0046,-0.0161,-0.0185,0
23486332,0.6459,-0.0049,-0.0139,0.7633,0.0004,-0.0036,-0.0214,0
23486498,0.6459,-0.0049,-0.0139,0.7633,-0.0012,0.0038,-0.0363,0
23486665,0.6458,-0.0049,-0.0139,0.7633,-0.0035,-0.0121,-0.0399,0
23486832,0.6458,-0.0049,-0.0139,0.7633,0.0038,-0.0050,-0.0219,0
23486998,0.6458,-0.0049,-0.0139,0.7633,0.0023,-0.0079,-0.0283,0
23487165,0.6458,-0.0049,-0.0139,0.7633,0.0052,-0.0031,-0.0578,0
23487332,0.6458,-0.0049,-0.0139,0.7633,-0.0024,-0.0003,-0.0370,0
23487498,0.6458,-0.0049,-0.0139,0.7633,0.0088,0.0029,-0.0308,0
23487665,0.6458,-0.0049,-0.0139,0.7633,-0.0061,-0.0067,-0.0415,0
23487832,0.6459,-0.0049,-0.0139,0.7633,0.0085,-0.0005,-0.0313,0
23487998,0.6459,-0.0049,-0.0139,0.7633,-0.0016,0.0052,-0.0369,0
23488165,0.6458,-0.0049,-0.0139,0.7633,-0.0081,-0.0183,-0.0383,0
23488332,0.6458,-0.0049,-0.0139,0.7633,0.0076,-0.0018,-0.0320,0
23488498,0.6458,-0.0049,-0.0139,0.7633,0.0031,-0.0109,-0.0437,0
23488665,0.6458,-0.0049,-0.0139,0.7633,-0.0179,0.0064,-0.0439,0
23488832,0.6458,-0.0049,-0.0139,0.7633,0.0039,0.0018,-0.0410,0
23488998,0.6458,-0.0049,-0.0139,0.7633,-0.0044,-0.0162,-0.0229,0
23489165,0.6458,-0.0049,-0.0139,0.7634,0.0114,0.0025,-0.0401,0
23489332,0.6458,-0.0049,-0.0139,0.7634,-0.0038,0.0011,-0.0396,0
23489499,0.6458,-0.0049,-0.0139,0.7634,0.0079,0.0024,-0.0255,0
23489665,0.6458,-0.0049,-0.0139,0.7634,0.0162,0.0013,-0.0423,0
23489832,0.6458,-0.0049,-0.0139,0.7634,-0.0002,0.0061,-0.0266,0
23489999,0.6458,-0.0049,-0.0139,0.7634,-0.0027,-0.0035,-0.0266,0
23490165,0.6458,-0.0050,-0.0139,0.7634,-0.0009,0.0013,-0.0311,0
23490332,0.6458,-0.0050,-0.0139,0.7634,0.0032,-0.0023,-0.0563,0
23490499,0.6458,-0.0050,-0.0139,0.7634,-0.0048,0.0022,-0.0481,0
23490665,0.6458,-0.0050,-0.0139,0.7634,0.0004,0.0055,-0.0501,0
23490832,0.6458,-0.0050,-0.0139,0.7634,0.0080,-0.0013,-0.0369,0
23490999,0.6458,-0.0050,-0.0139,0.7634,0.0010,0.0010,-0.0491,0
23491165,0.6458,-0.0050,-0.0139,0.7634,0.0004,-0.0102,-0.0312,0
23491332,0.6458,-0.0050,-0.0139,0.7634,-0.0108,-0.0042,-0.0310,0
23491499,0.6458,-0.0050,-0.0139,0.7634,-0.0012,0.0012,-0.0241,0
23491665,0.6458,-0.0050,-0.0139,0.7634,-0.0024,-0.0106,-0.0439,0
23491832,0.6458,-0.0050,-0.0139,0.7634,-0.0003,-0.0023,-0.0352,0
23491999,0.6458,-0.0050,-0.0138,0.7634,-0.0029,0.0070,-0.0492,0
23492165,0.6458,-0.0050,-0.0138,0.7634,0.0098,-0.0005,-0.0368,0
23492332,0.6458,-0.0050,-0.0138,0.7634,0.0004,0.0079,-0.0327,0
23492499,0.6458,-0.0050,-0.0138,0.7634,0.0026,0.0080,-0.0490,0
23492665,0.6458,-0.0050,-0.0138,0.7634,0.0115,0.0016,-0.0397,0
23492832,0.6458,-0.0050,-0.0139,0.7634,0.0047,-0.0038,-0.0446,0
23492999,0.6458,-0.0050,-0.0138,0.7634,-0.0051,0.0131,-0.0277,0
23493165,0.6458,-0.0050,-0.0138,0.7634,0.0044,0.0253,-0.0181,0
23493332,0.6458,-0.0050,-0.0138,0.7634,0.0240,-0.0030,-0.0309,0
23493499,0.6458,-0.0050,-0.0139,0.7634,-0.0021,-0.0020,-0.0481,0
23493665,0.6458,-0.0050,-0.0138,0.7634,-0.0080,0.0038,-0.0219,0
23493832,0.6458,-0.0050,-0.0138,0.7634,-0.0146,0.0002,-0.0178,0
23493999,0.6458,-0.0050,-0.0138,0.7634,-0.0024,0.0015,-0.0330,0
23494165,0.6458,-0.0050,-0.0138,0.7634,0.0124,0.0051,-0.0392,0
23494332,0.6458,-0.0050,-0.0138,0.7634,-0.0001,0.0076,-0.0472,0
23494499,0.6458,-0.0050,-0.0138,0.7634,0.0060,0.0053,-0.0402,0
23494665,0.6458,-0.0050,-0.0138,0.7634,-0.0066,0.0024,-0.0316,0
23494832,0.6458,-0.0050,-0.0138,0.7634,-0.0039,0.0009,-0.0298,0
23494999,0.6458,-0.0050,-0.0138,0.7634,-0.0066,-0.0093,-0.0480,0
23495165,0.6458,-0.0050,-0.0138,0.7634,-0.0176,0.0167,-0.0429,0
23495332,0.6458,-0.0050,-0.0138,0.7634,0.0038,-0.0070,-0.0473,0
23495499,0.6458,-0.0050,-0.0138,0.7634,0.0055,0.0010,-0.0517,0
23495665,0.6458,-0.0050,-0.0138,0.7634,-0.0011,0.0026,-0.0348,0
23495832,0.6458,-0.0050,-0.0138,0.7634,-0.0015,-0.0062,-0.0381,0
23495999,0.6458,-0.0050,-0.0138,0.7634,0.0005,-0.0008,-0.0434,0
23496165,0.6458,-0.0050,-0.0138,0.7634,-0.0126,-0.0059,-0.0239,0
23496332,0.6457,-0.0050,-0.0138,0.7634,-0.0122,0.0183,-0.0303,0
23496499,0.6457,-0.0050,-0.0138,0.7634,-0.0130,0.0052,-0.0245,0
23496665,0.6457,-0.0050,-0.0138,0.7634,0.0020,0.0018,-0.0337,0
23496832,0.6457,-0.0050,-0.0138,0.7634,-0.0065,0.0039,-0.0527,0
23496999,0.6457,-0.0050,-0.0138,0.7634,0.0002,0.0033,-0.0219,0
23497165,0.6457,-0.0050,-0.0138,0.7634,-0.0121,-0.0049,-0.0164,0
23497332,0.6457,-0.0050,-0.0138,0.7634,0.0015,0.0069,-0.0322,0
23497499,0.6457,-0.0050,-0.0138,0.7634,0.0026,0.0055,-0.0299,0
23497665,0.6457,-0.0050,-0.0138,0.7634,-0.0036,0.0011,-0.0121,0
23497832,0.6457,-0.0050,-0.0138,0.7634,-0.0044,-0.0106,-0.0315,0
23497999,0.6457,-0.0050,-0.0138,0.7634,-0.0061,0.0103,-0.0309,0
23498165,0.6457,-0.0050,-0.0138,0.7634,-0.0093,-0.0088,-0.0333,0
23498332,0.6457,-0.0050,-0.0138,0.7634,0.0232,0.0027,-0.0061,0
23498499,0.6457,-0.0050,-0.0138,0.7634,-0.0018,0.0073,-0.0461,0
23498665,0.6457,-0.0050,-0.0138,0.7634,-0.0137,0.0066,-0.0135,0
23498832,0.6457,-0.0050,-0.0138,0.7634,-0.0036,0.0123,-0.0343,0
23498999,0.6457,-0.0050,-0.0138,0.7634,0.0041,-0.0008,-0.0420,0
23499165,0.6457,-0.0050,-0.0138,0.7634,-0.0064,-0.0100,-0.0481,0
23499332,0.6457,-0.0050,-0.0138,0.7634,-0.0066,-0.0055,-0.0263,0
23499499,0.6457,-0.0050,-0.0138,0.7634,-0.0062,0.0043,-0.0240,0
23499665,0.6457,-0.0050,-0.0138,0.7634,-0.0033,-0.0059,-0.0231,0
23499832,0.6457,-0.0050,-0.0138,0.7634,0.0071,0.0044,-0.0410,0
23499999,0.6457,-0.0050,-0.0138,0.7634,-0.0036,-0.0065,-0.0192,0
23500165,0.6457,-0.0050,-0.0138,0.7634,0.0089,0.0033,-0.0383,0
23500332,0.6457,-0.0050,-0.0138,0.7634,-0.0077,-0.0025,-0.0534,0
23500499,0.6457,-0.0050,-0.0138,0.7634,-0.0074,-0.0020,-0.0215,0
23500665,0.6457,-0.0050,-0.0138,0.7634,0.0057,-0.0087,-0.0238,0
23500832,0.6457,-0.0051,-0.0138,0.7634,0.0120,-0.0051,-0.0481,0
23500999,0.6457,-0.0050,-0.0138,0.7635,-0.0069,0.0115,-0.0555,0
23501165,0.6457,-0.0050,-0.0138,0.7635,-0.0133,-0.0035,-0.0411,0
23501332,0.6457,-0.0051,-0.0138,0.7635,0.0025,0.0040,-0.0446,0
23501499,0.6457,-0.0050,-0.0138,0.7635,0.0003,-0.0075,-0.0236,0
23501665,0.6457,-0.0051,-0.0138,0.7635,-0.0158,-0.0021,-0.0126,0
23501832,0.6457,-0.0050,-0.0138,0.7635,-0.0120,-0.0029,-0.0378,0
23501999,0.6457,-0.0051,-0.0138,0.7635,-0.0117,0.0097,-0.0323,0
23502165,0.6457,-0.0051,-0.0138,0.7635,0.0020,0.0018,-0.0077,0
23502332,0.6457,-0.0051,-0.0138,0.7635,0.0108,0.0090,-0.0336,0
23502499,0.6457,-0.0051,-0.0138,0.7635,0.0019,0.0044,-0.0238,0
23502665,0.6456,-0.0051,-0.0138,0.7635,-0.0049,0.0006,-0.0425,0
23502832,0.6456,-0.0051,-0.0138,0.7635,-0.0085,-0.0037,-0.0200,0
23502999,0.6456,-0.0051,-0.0138,0.7635,-0.0019,0.0009,-0.0101,0
23503165,0.6456,-0.0051,-0.0138,0.7635,-0.0033,0.0118,-0.0117,0
23503332,0.6456,-0.0051,-0.0138,0.7635,0.0033,0.0108,-0.0384,0
23503499,0.6456,-0.0051,-0.0138,0.7635,-0.0088,-0.0079,-0.0319,0
23503665,0.6456,-0.0051,-0.0138,0.7635,-0.0033,0.0071,-0.0269,0
23503832,0.6456,-0.0051,-0.0138,0.7635,0.0042,0.0017,-0.0432,0
23503999,0.6456,-0.0051,-0.0138,0.7635,0.0057,0.0101,-0.0222,0
23504165,0.6456,-0.0051,-0.0138,0.7635,-0.0076,0.0206,-0.0326,0
23504332,0.6456,-0.0051,-0.0138,0.7635,-0.0037,0.0105,-0.0232,0
23504499,0.6456,-0.0051,-0.0138,0.7635,-0.0041,0.0129,-0.0449,0
23504665,0.6456,-0.0051,-0.0138,0.7635,0.0030,-0.0037,-0.0369,0
23504832,0.6456,-0.0051,-0.0138,0.7635,0.0044,0.0026,-0.0562,0
23504999,0.6456,-0.0051,-0.0138,0.7635,-0.0112,-0.0033,-0.0364,0
23505165,0.6456,-0.0051,-0.0138,0.7635,0.0023,0.0080,-0.0397,0
23505332,0.6456,-0.0051,-0.0138,0.7635,0.0006,0.0027,-0.0241,0
23505499,0.6456,-0.0051,-0.0138,0.7635,0.0041,0.0080,-0.0393,0
23505665,0.6456,-0.0051,-0.0138,0.7635,-0.0053,-0.0106,-0.0182,0
23505832,0.6456,-0.0051,-0.0138,0.7635,-0.0032,-0.0021,-0.0403,0
23505999,0.6456,-0.0051,-0.0138,0.7635,-0.0148,0.0050,-0.0339,0
23506166,0.6456,-0.0051,-0.0138,0.7635,-0.0041,-0.0147,-0.0251,0
23506332,0.6456,-0.0051,-0.0138,0.7635,0.0001,-0.0004,-0.0442,0
23506499,0.6456,-0.0051,-0.0138,0.7635,0.0163,0.0013,-0.0341,0
23506666,0.6456,-0.0051,-0.0138,0.7635,-0.0083,0.0088,-0.0207,0
23506832,0.6456,-0.0051,-0.0138,0.7635,-0.0067,0.0070,-0.0356,0
23506999,0.6456,-0.0051,-0.0138,0.7635,-0.0083,-0.0148,-0.0456,0
23507166,0.6456,-0.0051,-0.0138,0.7635,-0.0012,0.0008,-0.0376,0
23507332,0.6456,-0.0051,-0.0138,0.7635,-0.0027,0.0148,-0.0490,0
23507499,0.6456,-0.0051,-0.0138,0.7635,-0.0054,0.0070,-0.0395,0
23507666,0.6456,-0.0050,-0.0139,0.7635,0.0011,-0.0044,-0.0322,0
23507832,0.6456,-0.0050,-0.0139,0.7635,-0.0098,0.0042,-0.0025,0
23507999,0.6456,-0.0050,-0.0139,0.7635,-0.0113,-0.0003,-0.0362,0
23508166,0.6456,-0.0050,-0.0139,0.7635,0.0082,-0.0063,-0.0375,0
23508332,0.6456,-0.0050,-0.0139,0.7635,0.0084,0.0014,-0.0179,0
23508499,0.6456,-0.0050,-0.0139,0.7635,-0.0066,-0.0119,-0.0287,0
23508666,0.6456,-0.0050,-0.0139,0.7635,0.0028,-0.0039,-0.0422,0
23508832,0.6456,-0.0050,-0.0139,0.7635,0.0104,0.0038,-0.0333,0
23508999,0.6456,-0.0050,-0.0139,0.7635,0.0045,-0.0105,-0.0510,0
23509166,0.6456,-0.0050,-0.0139,0.7635,0.0108,-0.0119,-0.0320,0
23509332,0.6456,-0.0050,-0.0139,0.7635,-0.0164,-0.0028,-0.0300,0
23509499,0.6456,-0.0050,-0.0139,0.7635,0.0017,0.0080,-0.0266,0
23509666,0.6456,-0.0050,-0.0139,0.7635,0.0003,-0.0108,-0.0143,0
23509832,0.6456,-0.0050,-0.0139,0.7635,0.0097,-0.0013,-0.0306,0
23509999,0.6456,-0.0050,-0.0139,0.7635,-0.0003,0.0103,-0.0274,0
23510166,0.6456,-0.0050,-0.0139,0.7635,0.0003,-0.0014,-0.0528,0
23510332,0.6456,-0.0050,-0.0139,0.7635,0.0012,0.0019,-0.0386,0
23510499,0.6456,-0.0050,-0.0139,0.7635,-0.0044,-0.0033,-0.0375,0
23510666,0.6456,-0.0050,-0.0139,0.7635,-0.0056,0.0162,-0.0439,0
23510832,0.6456,-0.0050,-0.0139,0.7635,-0.0029,0.0015,-0.0422,0
23510999,0.6456,-0.0050,-0.0139,0.7635,0.0013,0.0017,-0.0294,0
23511166,0.6456,-0.0050,-0.0139,0.7636,0.0011,0.0049,-0.0232,0
23511332,0.6456,-0.0050,-0.0139,0.7636,0.0067,-0.0060,-0.0302,0
23511499,0.6456,-0.0050,-0.0139,0.7636,0.0041,-0.0033,-0.0167,0
23511666,0.6456,-0.0050,-0.0139,0.7636,-0.0009,0.0054,-0.0583,0
23511832,0.6456,-0.0050,-0.0139,0.7636,-0.0122,0.0045,-0.0211,0
23511999,0.6456,-0.0050,-0.0139,0.7636,0.0020,-0.0045,-0.0336,0
23512166,0.6456,-0.0050,-0.0139,0.7636,-0.0052,0.0079,-0.0190,0
23512332,0.6456,-0.0050,-0.0139,0.7636,0.0076,0.0018,-0.0277,0
23512499,0.6456,-0.0049,-0.0139,0.7636,-0.0107,0.0016,-0.0280,0
23512666,0.6456,-0.0049,-0.0139,0.7636,-0.0066,-0.0021,-0.0448,0
23512832,0.6456,-0.0049,-0.0139,0.7636,-0.0060,0.0014,-0.0587,0
23512999,0.6456,-0.0049,-0.0139,0.7636,0.0006,0.0018,-0.0521,0
23513166,0.6456,-0.0049,-0.0139,0.7636,0.0041,-0.0065,-0.0447,0
23513332,0.6456,-0.0049,-0.0139,0.7636,0.0043,-0.0109,-0.0382,0
23513499,0.6456,-0.0049,-0.0139,0.7636,-0.0185,0.0067,-0.0315,0
23513666,0.6456,-0.0049,-0.0139,0.7636,0.0000,-0.0138,-0.0400,0
23513832,0.6456,-0.0049,-0.0139,0.7636,0.0041,0.0050,-0.0534,0
23513999,0.6456,-0.0049,-0.0139,0.7636,0.0046,0.0004,-0.0359,0
23514166,0.6456,-0.0049,-0.0139,0.7636,0.0063,-0.0010,-0.0300,0
23514332,0.6456,-0.0049,-0.0139,0.7636,-0.0017,-0.0078,-0.0347,0
23514499,0.6456,-0.0049,-0.0139,0.7636,-0.0015,-0.0143,-0.0320,0
23514666,0.6456,-0.0049,-0.0139,0.7636,-0.0067,0.0035,-0.0474,0
23514832,0.6456,-0.0049,-0.0139,0.7636,-0.0042,-0.0032,-0.0180,0
23514999,0.6456,-0.0049,-0.0140,0.7636,0.0081,-0.0093,-0.0523,0
23515166,0.6456,-0.0049,-0.0140,0.7636,0.0043,-0.0012,-0.0326,0
23515332,0.6456,-0.0049,-0.0140,0.7636,0.0146,-0.0015,-0.0229,0
23515499,0.6456,-0.0049,-0.0140,0.7636,0.0041,-0.0041,-0.0426,0
23515666,0.6456,-0.0049,-0.0140,0.7636,0.0010,-0.0117,-0.0255,0
23515832,0.6456,-0.0049,-0.0140,0.7636,0.0112,-0.0099,-0.0379,0
23515999,0.6456,-0.0049,-0.0140,0.7636,0.0075,-0.0083,-0.0320,0
23516166,0.6455,-0.0049,-0.0140,0.7636,-0.0077,0.0050,-0.0474,0
23516332,0.6455,-0.0049,-0.0140,0.7636,-0.0021,-0.0081,-0.0250,0
23516499,0.6455,-0.0048,-0.0140,0.7636,-0.0084,-0.0060,-0.0701,0
23516666,0.6455,-0.0048,-0.0140,0.7636,-0.0092,-0.0059,-0.0291,0
23516832,0.6455,-0.0048,-0.0140,0.7636,0.0038,-0.0074,-0.0174,0
23516999,0.6455,-0.0048,-0.0140,0.7636,0.0058,0.0018,-0.0399,0
23517166,0.6455,-0.0048,-0.0140,0.7636,-0.0041,-0.0069,-0.0222,0
23517332,0.6455,-0.0048,-0.0140,0.7636,-0.0004,-0.0018,-0.0611,0
23517499,0.6455,-0.0048,-0.0140,0.7636,-0.0136,0.0007,-0.0367,0
23517666,0.6455,-0.0048,-0.0140,0.7636,0.0004,-0.0107,-0.0301,0
23517832,0.6455,-0.0048,-0.0140,0.7636,-0.0002,0.0014,-0.0250,0
23517999,0.6455,-0.0048,-0.0140,0.7636,-0.0071,0.0034,-0.0250,0
23518166,0.6455,-0.0048,-0.0140,0.7636,0.0025,-0.0007,-0.0458,0
23518332,0.6455,-0.0048,-0.0140,0.7636,-0.0144,0.0122,-0.0337,0
23518499,0.6455,-0.0048,-0.0140,0.7636,0.0004,-0.0099,-0.0221,0
23518666,0.6455,-0.0048,-0.0140,0.7636,-0.0105,-0.0154,-0.0185,0
23518832,0.6455,-0.0048,-0.0140,0.7636,-0.0028,0.0178,-0.0239,0
23518999,0.6455,-0.0048,-0.0140,0.7636,-0.0145,-0.0002,-0.0390,0
23519166,0.6455,-0.0048,-0.0140,0.7636,-0.0001,0.0017,-0.0234,0
23519332,0.6455,-0.0048,-0.0140,0.7636,-0.0055,-0.0076,-0.0381,0
23519499,0.6455,-0.0048,-0.0140,0.7636,-0.0104,-0.0066,-0.0188,0
23519666,0.6455,-0.0048,-0.0140,0.7636,0.0104,0.0033,-0.0286,0
23519832,0.6455,-0.0048,-0.0140,0.7636,0.0080,0.0006,-0.0321,0
23519999,0.6455,-0.0048,-0.0140,0.7636,0.0009,-0.0011,-0.0053,0
23520166,0.6455,-0.0048,-0.0140,0.7636,-0.0044,-0.0008,-0.0370,0
23520332,0.6455,-0.0048,-0.0140,0.7636,-0.0103,0.0033,-0.0300,0
23520499,0.6455,-0.0048,-0.0140,0.7636,-0.0057,-0.0070,-0.0404,0
23520666,0.6455,-0.0048,-0.0140,0.7636,-0.0065,0.0018,-0.0401,0
23520832,0.6455,-0.0048,-0.0140,0.7636,0.0124,-0.0095,-0.0481,0
23520999,0.6455,-0.0048,-0.0140,0.7636,0.0112,-0.0037,-0.0476,0
23521166,0.6455,-0.0048,-0.0140,0.7636,0.0018,0.0017,-0.0274,0
23521332,0.6455,-0.0048,-0.0140,0.7636,0.0144,-0.0029,-0.0140,0
23521499,0.6455,-0.0048,-0.0140,0.7636,0.0012,-0.0105,-0.0285,0
23521666,0.6455,-0.0048,-0.0140,0.7636,-0.0095,-0.0008,-0.0350,0
23521832,0.6455,-0.0048,-0.0140,0.7636,0.0068,-0.0158,-0.0241,0
23521999,0.6455,-0.0048,-0.0140,0.7636,0.0074,0.0019,-0.0419,0
23522166,0.6455,-0.0048,-0.0140,0.7636,0.0041,0.0026,-0.0322,0
23522332,0.6455,-0.0048,-0.0140,0.7636,-0.0031,0.0005,-0.0318,0
23522499,0.6455,-0.0048,-0.0140,0.7636,0.0076,-0.0012,-0.0311,0
23522666,0.6455,-0.0048,-0.0140,0.7636,-0.0122,0.0009,-0.0376,0
23522833,0.6455,-0.0048,-0.0140,0.7636,-0.0046,-0.0018,-0.0518,0
23522999,0.6455,-0.0048,-0.0140,0.7636,0.0106,-0.0033,-0.0522,0
23523166,0.6455,-0.0048,-0.0140,0.7636,0.0004,0.0088,-0.0343,0
23523333,0.6455,-0.0048,-0.0140,0.7636,-0.0019,-0.0090,-0.0382,0
23523499,0.6455,-0.0048,-0.0140,0.7636,-0.0009,-0.0013,-0.0368,0
23523666,0.6455,-0.0048,-0.0140,0.7636,0.0112,-0.0134,-0.0440,0
23523833,0.6455,-0.0048,-0.0140,0.7636,-0.0026,0.0035,-0.0330,0
23523999,0.6455,-0.0048,-0.0140,0.7636,-0.0076,0.0088,-0.0229,0
23524166,0.6455,-0.0048,-0.0140,0.7636,0.0108,-0.0054,-0.0295,0
23524333,0.6455,-0.0048,-0.0140,0.7636,0.0004,0.0029,-0.0306,0
23524499,0.6455,-0.0048,-0.0140,0.7636,0.0036,-0.0097,-0.0191,0
23524666,0.6455,-0.0048,-0.0140,0.7636,-0.0041,-0.0114,-0.0349,0
23524833,0.6455,-0.0048,-0.0140,0.7637,-0.0089,0.0045,-0.0450,0
23524999,0.6455,-0.0048,-0.0140,0.7637,0.0063,-0.0069,-0.0507,0
23525166,0.6454,-0.0048,-0.0140,0.7637,0.0027,0.0008,-0.0413,0
23525333,0.6454,-0.0048,-0.0140,0.7637,-0.0048,0.0066,-0.0386,0
23525499,0.6454,-0.0048,-0.0140,0.7637,-0.0034,0.0054,-0.0340,0
23525666,0.6454,-0.0048,-0.0140,0.7637,-0.0010,-0.0015,-0.0419,0
23525833,0.6454,-0.0048,-0.0140,0.7637,0.0035,0.0045,-0.0310,0
23525999,0.6454,-0.0048,-0.0140,0.7637,0.0009,-0.0073,-0.0284,0
23526166,0.6454,-0.0048,-0.0140,0.7637,0.0059,-0.0111,-0.0234,0
23526333,0.6454,-0.0048,-0.0140,0.7637,-0.0098,-0.0040,-0.0200,0
23526499,0.6454,-0.0047,-0.0140,0.7637,0.0026,-0.0172,-0.0259,0
23526666,0.6454,-0.0047,-0.0140,0.7637,0.0033,-0.0067,-0.0282,0
23526833,0.6454,-0.0047,-0.0140,0.7637,-0.0017,-0.0009,-0.0381,0
23526999,0.6454,-0.0047,-0.0140,0.7637,0.0080,0.0013,-0.0385,0
23527166,0.6454,-0.0047,-0.0140,0.7637,0.0044,-0.0173,-0.0384,0
23527333,0.6454,-0.0047,-0.0140,0.7637,-0.0017,-0.0178,-0.0301,0
23527499,0.6454,-0.0047,-0.0140,0.7637,-0.0124,0.0053,-0.0326,0
23527666,0.6454,-0.0049,-0.0139,0.7637,-0.0017,-0.0018,-0.0478,0
23527833,0.6454,-0.0049,-0.0139,0.7637,-0.0030,0.0001,-0.0343,0
23527999,0.6454,-0.0049,-0.0139,0.7637,0.0020,0.0092,-0.0190,0
23528166,0.6454,-0.0049,-0.0139,0.7637,0.0054,-0.0086,-0.0355,0
23528333,0.6454,-0.0049,-0.0139,0.7637,0.0091,0.0029,-0.0300,0
23528499,0.6454,-0.0049,-0.0139,0.7637,0.0055,0.0016,-0.0442,0
23528666,0.6454,-0.0049,-0.0139,0.7637,0.0119,-0.0055,-0.0364,0
23528833,0.6454,-0.0049,-0.0139,0.7637,0.0051,0.0019,-0.0573,0
23528999,0.6454,-0.0049,-0.0139,0.7637,0.0036,0.0043,-0.0380,0
23529166,0.6454,-0.0049,-0.0139,0.7637,0.0039,0.0032,-0.0380,0
23529333,0.6454,-0.0049,-0.0139,0.7637,-0.0112,0.0012,-0.0083,0
23529499,0.6454,-0.0049,-0.0139,0.7637,0.0077,0.0031,-0.0447,0
23529666,0.6454,-0.0049,-0.0139,0.7637,-0.0177,0.0080,-0.0301,0
23529833,0.6454,-0.0049,-0.0139,0.7637,0.0128,-0.0043,-0.0449,0
23529999,0.6454,-0.0049,-0.0139,0.7637,-0.0096,-0.0111,-0.0367,0
23530166,0.6454,-0.0049,-0.0139,0.7637,-0.0154,-0.0015,-0.0269,0
23530333,0.6454,-0.0049,-0.0139,0.7637,-0.0103,-0.0041,-0.0332,0
23530499,0.6454,-0.0049,-0.0139,0.7637,0.0067,0.0008,-0.0516,0
23530666,0.6454,-0.0049,-0.0139,0.7637,0.0070,-0.0088,-0.0449,0
23530833,0.6454,-0.0049,-0.0139,0.7637,0.0125,-0.0048,-0.0473,0
23530999,0.6454,-0.0049,-0.0139,0.7637,0.0154,-0.0036,-0.0605,0
23531166,0.6454,-0.0049,-0.0139,0.7637,0.0070,0.0031,-0.0498,0
23531333,0.6454,-0.0049,-0.0139,0.7637,0.0009,-0.0012,-0.0304,0
23531499,0.6454,-0.0049,-0.0139,0.7637,0.0036,-0.0092,-0.0284,0
23531666,0.6454,-0.0049,-0.0139,0.7637,-0.0015,-0.0000,-0.0320,0
23531833,0.6454,-0.0049,-0.0139,0.7637,-0.0036,0.0037,-0.0318,0
23531999,0.6454,-0.0049,-0.0139,0.7637,-0.0157,0.0030,-0.0584,0
23532166,0.6454,-0.0049,-0.0139,0.7637,0.0018,0.0000,-0.0253,0
23532333,0.6454,-0.0049,-0.0139,0.7637,0.0067,0.0036,-0.0349,0
23532499,0.6454,-0.0049,-0.0139,0.7637,0.0007,-0.0012,-0.0352,0
23532666,0.6454,-0.0049,-0.0139,0.7637,0.0011,-0.0050,-0.0665,0
23532833,0.6454,-0.0049,-0.0139,0.7637,-0.0036,0.0022,-0.0340,0
23532999,0.6454,-0.0049,-0.0139,0.7637,0.0041,-0.0052,-0.0317,0
23533166,0.6454,-0.0049,-0.0139,0.7637,-0.0128,0.0003,-0.0338,0
23533333,0.6454,-0.0049,-0.0139,0.7637,-0.0008,0.0009,-0.0371,0
23533499,0.6454,-0.0049,-0.0139,0.7637,0.0155,0.0062,-0.0523,0
23533666,0.6454,-0.0049,-0.0139,0.7637,0.0130,-0.0091,-0.0327,0
23533833,0.6454,-0.0049,-0.0139,0.7637,0.0028,0.0032,-0.0443,0
23533999,0.6453,-0.0049,-0.0139,0.7637,0.0014,0.0021,-0.0449,0
23534166,0.6453,-0.0049,-0.0139,0.7637,0.0032,-0.0046,-0.0545,0
23534333,0.6453,-0.0049,-0.0139,0.7638,0.0099,-0.0033,-0.0238,0
23534499,0.6453,-0.0049,-0.0139,0.7638,0.0077,-0.0184,-0.0276,0
23534666,0.6453,-0.0049,-0.0139,0.7638,-0.0079,-0.0001,-0.0618,0
23534833,0.6453,-0.0049,-0.0139,0.7638,-0.0022,-0.0134,-0.0511,0
23534999,0.6453,-0.0049,-0.0139,0.7638,-0.0020,-0.0025,-0.0587,0
23535166,0.6453,-0.0049,-0.0139,0.7638,0.0022,0.0016,-0.0345,0
23535333,0.6453,-0.0049,-0.0139,0.7638,-0.0064,-0.0084,-0.0416,0
23535499,0.6453,-0.0049,-0.0139,0.7638,-0.0131,0.0051,-0.0357,0
23535666,0.6453,-0.0049,-0.0139,0.7638,0.0005,0.0049,-0.0424,0
23535833,0.6453,-0.0049,-0.0139,0.7638,-0.0127,0.0047,-0.0206,0
23535999,0.6453,-0.0049,-0.0139,0.7638,-0.0012,-0.0073,-0.0277,0
23536166,0.6453,-0.0049,-0.0139,0.7638,-0.0065,0.0077,-0.0583,0
23536333,0.6453,-0.0049,-0.0139,0.7638,0.0138,0.0130,-0.0190,0
23536499,0.6453,-0.0049,-0.0139,0.7638,-0.0152,-0.0030,-0.0199,0
23536666,0.6453,-0.0049,-0.0139,0.7638,-0.0037,-0.0005,-0.0398,0
23536833,0.6453,-0.0049,-0.0139,0.7638,0.0198,0.0036,-0.0474,0
23536999,0.6453,-0.0049,-0.0139,0.7638,0.0124,0.0011,-0.0309,0
23537166,0.6453,-0.0049,-0.0139,0.7638,-0.0003,0.0007,-0.0288,0
23537333,0.6453,-0.0049,-0.0139,0.7638,-0.0010,-0.0066,-0.0360,0
23537499,0.6453,-0.0049,-0.0139,0.7638,0.0021,-0.0008,-0.0482,0
23537666,0.6453,-0.0049,-0.0139,0.7638,0.0011,0.0103,-0.0284,0
23537833,0.6453,-0.0049,-0.0138,0.7638,-0.0076,-0.0052,-0.0415,0
23537999,0.6453,-0.0049,-0.0138,0.7638,-0.0019,0.0010,-0.0453,0
23538166,0.6453,-0.0049,-0.0138,0.7638,-0.0149,-0.0043,-0.0499,0
23538333,0.6453,-0.0049,-0.0138,0.7638,0.0031,-0.0063,-0.0264,0
23538499,0.6453,-0.0049,-0.0138,0.7638,0.0105,0.0062,-0.0494,0
23538666,0.6453,-0.0049,-0.0138,0.7638,0.0037,-0.0003,-0.0312,0
23538833,0.6453,-0.0049,-0.0138,0.7638,0.0004,-0.0075,-0.0274,0
23538999,0.6453,-0.0049,-0.0138,0.7638,-0.0008,0.0040,-0.0301,0
23539166,0.6453,-0.0049,-0.0138,0.7638,-0.0056,0.0041,-0.0402,0
23539333,0.6453,-0.0049,-0.0138,0.7638,-0.0027,-0.0047,-0.0385,0
23539500,0.6453,-0.0049,-0.0138,0.7638,0.0030,-0.0057,-0.0433,0
23539666,0.6453,-0.0049,-0.0138,0.7638,0.0138,-0.0088,-0.0533,0
23539833,0.6453,-0.0049,-0.0138,0.7638,0.0090,-0.0021,-0.0452,0
23540000,0.6453,-0.0049,-0.0138,0.7638,0.0092,-0.0008,-0.0529,0
23540166,0.6453,-0.0049,-0.0138,0.7638,0.0096,-0.0022,-0.0684,0
23540333,0.6453,-0.0049,-0.0138,0.7638,0.0099,0.0125,-0.0542,0
23540500,0.6453,-0.0049,-0.0138,0.7638,0.0003,-0.0029,-0.0381,0
23540666,0.6453,-0.0049,-0.0138,0.7638,0.0036,-0.0056,-0.0314,0
23540833,0.6453,-0.0049,-0.0138,0.7638,0.0131,0.0214,-0.0302,0
23541000,0.6453,-0.0049,-0.0138,0.7638,0.0098,0.0017,-0.0430,0
23541166,0.6453,-0.0049,-0.0138,0.7638,0.0049,0.0001,-0.0439,0
23541333,0.6453,-0.0049,-0.0138,0.7638,0.0051,-0.0064,-0.0165,0
23541500,0.6453,-0.0049,-0.0138,0.7638,0.0071,0.0038,-0.0430,0
23541666,0.6453,-0.0049,-0.0138,0.7638,-0.0131,-0.0054,-0.0381,0
23541833,0.6453,-0.0049,-0.0138,0.7638,-0.0078,0.0002,-0.0496,0
23542000,0.6453,-0.0049,-0.0138,0.7638,0.0006,0.0036,-0.0360,0
23542166,0.6453,-0.0049,-0.0138,0.7638,-0.0023,0.0105,-0.0213,0
23542333,0.6453,-0.0049,-0.0138,0.7638,0.0173,-0.0056,-0.0278,0
23542500,0.6453,-0.0049,-0.0138,0.7638,0.0089,-0.0125,-0.0383,0
23542666,0.6453,-0.0049,-0.0138,0.7638,0.0012,-0.0126,-0.0477,0
23542833,0.6453,-0.0049,-0.0138,0.7638,0.0106,-0.0057,-0.0289,0
23543000,0.6453,-0.0049,-0.0138,0.7638,0.0095,-0.0032,-0.0297,0
23543166,0.6453,-0.0049,-0.0138,0.7638,0.0082,0.0036,-0.0407,0
23543333,0.6453,-0.0049,-0.0138,0.7638,-0.0012,-0.0017,-0.0578,0
23543500,0.6453,-0.0049,-0.0138,0.7638,-0.0103,-0.0001,-0.0365,0
23543666,0.6453,-0.0049,-0.0138,0.7638,-0.0015,-0.0042,-0.0355,0
23543833,0.6453,-0.0049,-0.0138,0.7638,0.0011,-0.0051,-0.0481,0
23544000,0.6453,-0.0049,-0.0137,0.7638,0.0007,0.0007,-0.0294,0
23544166,0.6453,-0.0049,-0.0137,0.7638,0.0134,0.0117,-0.0258,0
23544333,0.6453,-0.0049,-0.0137,0.7638,-0.0035,-0.0061,-0.0422,0
23544500,0.6453,-0.0049,-0.0137,0.7638,0.0082,0.0002,-0.0472,0
23544666,0.6453,-0.0049,-0.0137,0.7638,-0.0010,-0.0023,-0.0292,0
23544833,0.6453,-0.0049,-0.0138,0.7638,0.0004,-0.0039,-0.0427,0
23545000,0.6452,-0.0049,-0.0138,0.7638,0.0084,0.0124,-0.0287,0
23545166,0.6452,-0.0049,-0.0138,0.7638,-0.0052,-0.0125,-0.0413,0
23545333,0.6452,-0.0049,-0.0138,0.7638,0.0033,-0.0017,-0.0346,0
23545500,0.6452,-0.0049,-0.0138,0.7638,0.0096,0.0019,-0.0454,0
23545666,0.6452,-0.0049,-0.0138,0.7638,0.0065,-0.0033,-0.0368,0
23545833,0.6452,-0.0049,-0.0137,0.7638,-0.0075,-0.0022,-0.0261,0
23546000,0.6453,-0.0049,-0.0138,0.7638,0.0021,0.0018,-0.0479,0
23546166,0.6452,-0.0049,-0.0137,0.7638,0.0021,-0.0013,-0.0385,0
23546333,0.6452,-0.0049,-0.0137,0.7638,0.0117,-0.0019,-0.0414,0
23546500,0.6452,-0.0049,-0.0137,0.7638,0.0139,-0.0017,-0.0331,0
23546666,0.6452,-0.0049,-0.0137,0.7638,0.0027,0.0064,-0.0423,0
23546833,0.6452,-0.0049,-0.0137,0.7638,0.0142,-0.0078,-0.0466,0
23547000,0.6452,-0.0049,-0.0137,0.7638,0.0132,-0.0034,-0.0357,0
23547166,0.6452,-0.0049,-0.0137,0.7638,0.0041,0.0063,-0.0261,0
23547333,0.6452,-0.0049,-0.0137,0.7638,0.0149,-0.0018,-0.0179,0
23547500,0.6452,-0.0049,-0.0137,0.7639,-0.0095,-0.0095,-0.0271,0
23547666,0.6453,-0.0049,-0.0139,0.7638,-0.0017,0.0000,-0.0495,0
23547833,0.6453,-0.0049,-0.0139,0.7638,-0.0011,-0.0030,-0.0242,0
23548000,0.6453,-0.0049,-0.0139,0.7638,-0.0039,-0.0031,-0.0268,0
23548166,0.6453,-0.0048,-0.0139,0.7638,-0.0006,-0.0013,-0.0045,0
23548333,0.6453,-0.0048,-0.0139,0.7638,0.0008,-0.0072,-0.0367,0
23548500,0.6453,-0.0049,-0.0139,0.7638,0.0060,-0.0115,-0.0251,0
23548666,0.6453,-0.0048,-0.0139,0.7638,-0.0059,-0.0003,-0.0399,0
23548833,0.6453,-0.0049,-0.0139,0.7638,-0.0182,-0.0072,-0.0432,0
23549000,0.6453,-0.0049,-0.0139,0.7638,-0.0043,-0.0035,-0.0381,0
23549166,0.6453,-0.0049,-0.0139,0.7638,0.0062,-0.0077,-0.0209,0
23549333,0.6453,-0.0048,-0.0139,0.7638,0.0032,-0.0132,-0.0239,0
23549500,0.6453,-0.0048,-0.0139,0.7638,0.0098,-0.0087,-0.0322,0
23549666,0.6453,-0.0048,-0.0139,0.7638,0.0069,-0.0137,-0.0361,0
23549833,0.6453,-0.0048,-0.0139,0.7638,-0.0087,-0.0023,-0.0311,0
23550000,0.6453,-0.0048,-0.0139,0.7638,0.0140,0.0005,-0.0284,0
23550166,0.6453,-0.0048,-0.0139,0.7638,0.0009,0.0094,-0.0354,0
23550333,0.6453,-0.0048,-0.0139,0.7638,-0.0050,-0.0190,-0.0477,0
23550500,0.6453,-0.0048,-0.0139,0.7638,0.0086,-0.0006,-0.0511,0
23550666,0.6453,-0.0049,-0.0139,0.7638,0.0127,-0.0195,-0.0647,0
23550833,0.6453,-0.0048,-0.0139,0.7638,-0.0042,-0.0015,-0.0470,0
23551000,0.6453,-0.0048,-0.0139,0.7638,0.0098,-0.0018,-0.0405,0
23551166,0.6453,-0.0048,-0.0139,0.7638,0.0091,-0.0010,-0.0459,0
23551333,0.6453,-0.0048,-0.0139,0.7638,0.0108,-0.0039,-0.0360,0
23551500,0.6453,-0.0048,-0.0139,0.7638,0.0023,-0.0021,-0.0385,0
23551666,0.6453,-0.0048,-0.0139,0.7638,0.0072,-0.0090,-0.0395,0
23551833,0.6453,-0.0048,-0.0139,0.7638,-0.0097,-0.0108,-0.0535,0
23552000,0.6452,-0.0048,-0.0139,0.7638,-0.0041,0.0043,-0.0428,0
23552166,0.6452,-0.0048,-0.0139,0.7638,-0.0090,-0.0148,-0.0338,0
23552333,0.6452,-0.0048,-0.0139,0.7638,0.0145,-0.0024,-0.0657,0
23552500,0.6452,-0.0048,-0.0139,0.7638,0.0038,-0.0019,-0.0515,0
23552666,0.6452,-0.0048,-0.0139,0.7638,0.0015,0.0098,-0.0377,0
23552833,0.6452,-0.0048,-0.0139,0.7638,0.0095,-0.0005,-0.0391,0
23553000,0.6452,-0.0048,-0.0139,0.7638,-0.0062,-0.0137,-0.0431,0
23553166,0.6452,-0.0048,-0.0139,0.7638,0.0112,0.0035,-0.0372,0
23553333,0.6452,-0.0048,-0.0139,0.7638,0.0111,0.0030,-0.0482,0
23553500,0.6452,-0.0048,-0.0139,0.7638,0.0019,0.0050,-0.0223,0
23553666,0.6452,-0.0048,-0.0139,0.7638,-0.0010,-0.0074,-0.0419,0
23553833,0.6452,-0.0048,-0.0139,0.7638,0.0041,-0.0143,-0.0490,0
23554000,0.6452,-0.0048,-0.0139,0.7638,0.0010,-0.0092,-0.0265,0
23554166,0.6452,-0.0048,-0.0139,0.7639,0.0043,-0.0091,-0.0415,0
23554333,0.6452,-0.0048,-0.0139,0.7638,0.0032,-0.0082,-0.0388,0
23554500,0.6452,-0.0048,-0.0139,0.7638,-0.0013,-0.0087,-0.0563,0
23554666,0.6452,-0.0047,-0.0139,0.7638,0.0107,0.0047,-0.0343,0
23554833,0.6452,-0.0048,-0.0139,0.7638,0.0092,0.0005,-0.0327,0
23555000,0.6452,-0.0047,-0.0139,0.7638,-0.0045,0.0098,-0.0319,0
23555166,0.6452,-0.0047,-0.0139,0.7638,-0.0005,-0.0009,-0.0225,0
23555333,0.6452,-0.0047,-0.0139,0.7638,0.0235,-0.0127,-0.0406,0
23555500,0.6452,-0.0047,-0.0139,0.7638,0.0067,0.0076,-0.0444,0
23555666,0.6452,-0.0047,-0.0139,0.7638,0.0110,0.0141,-0.0412,0
23555833,0.6452,-0.0047,-0.0139,0.7638,0.0131,0.0033,-0.0349,0
23556000,0.6452,-0.0047,-0.0139,0.7638,-0.0001,0.0070,-0.0364,0
23556167,0.6452,-0.0047,-0.0139,0.7638,0.0066,-0.0111,-0.0311,0
23556333,0.6452,-0.0047,-0.0139,0.7638,0.0006,-0.0068,-0.0476,0
23556500,0.6453,-0.0047,-0.0139,0.7638,-0.0006,-0.0029,-0.0352,0
23556667,0.6453,-0.0047,-0.0139,0.7638,0.0061,0.0015,-0.0107,0
23556833,0.6453,-0.0047,-0.0139,0.7638,0.0072,-0.0180,-0.0468,0
23557000,0.6453,-0.0047,-0.0139,0.7638,0.0076,-0.0001,-0.0152,0
23557167,0.6453,-0.0047,-0.0139,0.7638,-0.0106,-0.0125,-0.0444,0
23557333,0.6453,-0.0047,-0.0139,0.7638,0.0063,0.0023,-0.0267,0
23557500,0.6453,-0.0047,-0.0139,0.7638,0.0030,0.0027,-0.0452,0
23557667,0.6453,-0.0047,-0.0139,0.7638,0.0035,-0.0085,-0.0446,0
23557833,0.6453,-0.0047,-0.0139,0.7638,0.0145,-0.0069,-0.0311,0
23558000,0.6453,-0.0047,-0.0139,0.7638,0.0038,-0.0209,-0.0414,0
23558167,0.6453,-0.0047,-0.0139,0.7638,0.0115,-0.0006,-0.0401,0
23558333,0.6453,-0.0047,-0.0139,0.7638,-0.0056,0.0179,-0.0246,0
23558500,0.6453,-0.0047,-0.0139,0.7638,-0.0048,-0.0110,-0.0206,0
23558667,0.6453,-0.0047,-0.0139,0.7638,0.0114,-0.0020,-0.0465,0
23558833,0.6453,-0.0047,-0.0139,0.7638,0.0223,0.0042,-0.0246,0
23559000,0.6453,-0.0047,-0.0139,0.7638,0.0056,-0.0049,-0.0110,0
23559167,0.6452,-0.0047,-0.0139,0.7638,-0.0009,-0.0097,-0.0227,0
23559333,0.6453,-0.0047,-0.0139,0.7638,-0.0024,-0.0041,-0.0244,0
23559500,0.6453,-0.0047,-0.0139,0.7638,-0.0032,-0.0160,-0.0576,0
23559667,0.6453,-0.0047,-0.0139,0.7638,0.0150,-0.0091,-0.0478,0
23559833,0.6452,-0.0047,-0.0139,0.7638,0.0014,-0.0059,-0.0310,0
23560000,0.6452,-0.0047,-0.0139,0.7638,0.0001,0.0008,-0.0235,0
23560167,0.6452,-0.0047,-0.0139,0.7638,0.0028,-0.0030,-0.0407,0
23560333,0.6452,-0.0047,-0.0139,0.7638,0.0197,-0.0004,-0.0261,0
23560500,0.6452,-0.0047,-0.0139,0.7638,-0.0059,-0.0137,-0.0362,0
23560667,0.6452,-0.0047,-0.0139,0.7638,0.0055,-0.0074,-0.0351,0
23560833,0.6452,-0.0047,-0.0139,0.7638,0.0031,-0.0060,-0.0266,0
23561000,0.6452,-0.0047,-0.0139,0.7638,0.0010,-0.0151,-0.0300,0
23561167,0.6452,-0.0047,-0.0138,0.7638,0.0159,-0.0067,-0.0381,0
23561333,0.6452,-0.0047,-0.0138,0.7638,0.0049,-0.0074,-0.0523,0
23561500,0.6452,-0.0047,-0.0138,0.7638,-0.0023,0.0009,-0.0623,0
23561667,0.6452,-0.0047,-0.0138,0.7639,0.0069,-0.0110,-0.0460,0
23561833,0.6452,-0.0047,-0.0138,0.7639,0.0051,-0.0056,-0.0475,0
23562000,0.6452,-0.0047,-0.0138,0.7639,-0.0014,-0.0097,-0.0461,0
23562167,0.6452,-0.0047,-0.0138,0.7639,0.0113,-0.0065,-0.0352,0
23562333,0.6452,-0.0047,-0.0138,0.7639,0.0118,-0.0009,-0.0288,0
23562500,0.6452,-0.0047,-0.0138,0.7639,0.0017,0.0092,-0.0540,0
23562667,0.6452,-0.0047,-0.0138,0.7639,0.0012,-0.0056,-0.0451,0
23562833,0.6452,-0.0047,-0.0138,0.7639,-0.0001,-0.0087,-0.0441,0
23563000,0.6452,-0.0047,-0.0138,0.7639,0.0062,-0.0042,-0.0661,0
23563167,0.6452,-0.0047,-0.0139,0.7639,0.0090,-0.0028,-0.0474,0
23563333,0.6452,-0.0047,-0.0138,0.7639,0.0184,-0.0142,-0.0450,0
23563500,0.6452,-0.0047,-0.0138,0.7639,0.0156,-0.0136,-0.0438,0
23563667,0.6452,-0.0047,-0.0138,0.7639,0.0047,-0.0098,-0.0432,0
23563833,0.6452,-0.0047,-0.0138,0.7639,0.0158,0.0048,-0.0594,0
23564000,0.6452,-0.0047,-0.0138,0.7639,0.0137,0.0006,-0.0404,0
23564167,0.6452,-0.0047,-0.0138,0.7639,0.0003,0.0009,-0.0381,0
23564333,0.6452,-0.0047,-0.0138,0.7639,0.0055,0.0039,-0.0533,0
23564500,0.6452,-0.0047,-0.0138,0.7639,0.0103,0.0042,-0.0374,0
23564667,0.6452,-0.0047,-0.0138,0.7639,0.0120,0.0038,-0.0514,0
23564833,0.6452,-0.0047,-0.0138,0.7639,0.0065,-0.0104,-0.0576,0
23565000,0.6452,-0.0047,-0.0138,0.7639,-0.0084,-0.0073,-0.0463,0
23565167,0.6452,-0.0047,-0.0138,0.7639,0.0001,0.0008,-0.0483,0
23565333,0.6452,-0.0047,-0.0138,0.7639,-0.0041,0.0005,-0.0429,0
23565500,0.6452,-0.0047,-0.0139,0.7639,0.0127,-0.0020,-0.0317,0
23565667,0.6452,-0.0047,-0.0138,0.7639,0.0090,0.0071,-0.0323,0
23565833,0.6452,-0.0047,-0.0138,0.7638,0.0001,-0.0055,-0.0642,0
23566000,0.6452,-0.0047,-0.0138,0.7638,0.0074,0.0057,-0.0601,0
23566167,0.6452,-0.0047,-0.0138,0.7638,0.0107,0.0086,-0.0367,0
23566333,0.6452,-0.0047,-0.0138,0.7638,0.0020,-0.0071,-0.0381,0
23566500,0.6452,-0.0047,-0.0138,0.7638,0.0005,-0.0060,-0.0290,0
23566667,0.6452,-0.0047,-0.0138,0.7638,0.0095,-0.0011,-0.0394,0
23566833,0.6452,-0.0047,-0.0138,0.7638,0.0007,-0.0023,-0.0443,0
23567000,0.6452,-0.0047,-0.0138,0.7638,0.0119,-0.0014,-0.0253,0
23567167,0.6452,-0.0047,-0.0138,0.7639,0.0082,0.0019,-0.0253,0
23567333,0.6452,-0.0047,-0.0138,0.7639,0.0084,-0.0041,-0.0489,0
23567500,0.6452,-0.0047,-0.0138,0.7639,-0.0100,-0.0070,-0.0275,0
23567667,0.6452,-0.0048,-0.0138,0.7639,0.0069,0.0037,-0.0423,0
23567833,0.6452,-0.0048,-0.0138,0.7639,0.0051,-0.0102,-0.0167,0
23568000,0.6452,-0.0048,-0.0138,0.7639,0.0010,-0.0080,-0.0374,0
23568167,0.6452,-0.0048,-0.0138,0.7639,-0.0049,0.0058,-0.0328,0
23568333,0.6452,-0.0048,-0.0139,0.7639,-0.0073,-0.0064,-0.0317,0
23568500,0.6452,-0.0048,-0.0138,0.7639,0.0008,-0.0008,-0.0359,0
23568667,0.6452,-0.0048,-0.0138,0.7639,0.0008,0.0026,-0.0333,0
23568833,0.6452,-0.0048,-0.0138,0.7639,0.0112,0.0020,-0.0306,0
23569000,0.6452,-0.0048,-0.0138,0.7639,-0.0030,-0.0047,-0.0482,0
23569167,0.6452,-0.0048,-0.0138,0.7639,0.0095,0.0024,-0.0175,0
23569333,0.6452,-0.0048,-0.0138,0.7639,0.0204,0.0031,-0.0192,0
23569500,0.6452,-0.0048,-0.0138,0.7639,0.0077,-0.0165,-0.0259,0
23569667,0.6452,-0.0048,-0.0138,0.7639,0.0056,0.0092,-0.0233,0
23569833,0.6452,-0.0048,-0.0138,0.7639,0.0077,-0.0061,-0.0432,0
23570000,0.6452,-0.0048,-0.0139,0.7639,0.0092,-0.0095,-0.0371,0
23570167,0.6452,-0.0048,-0.0139,0.7639,0.0062,-0.0075,-0.0379,0
23570333,0.6452,-0.0048,-0.0139,0.7639,0.0024,-0.0019,-0.0459,0
23570500,0.6452,-0.0048,-0.0139,0.7639,0.0028,-0.0011,-0.0385,0
23570667,0.6452,-0.0048,-0.0139,0.7639,0.0025,-0.0148,-0.0353,0
23570833,0.6452,-0.0048,-0.0139,0.7639,0.0016,0.0056,-0.0246,0
23571000,0.6452,-0.0048,-0.0139,0.7639,0.0011,0.0089,-0.0462,0
23571167,0.6452,-0.0048,-0.0139,0.7639,-0.0020,0.0104,-0.0405,0
23571333,0.6452,-0.0048,-0.0138,0.7639,0.0069,0.0009,-0.0574,0
23571500,0.6452,-0.0048,-0.0138,0.7639,0.0108,-0.0019,-0.0074,0
23571667,0.6452,-0.0048,-0.0139,0.7639,0.0155,0.0025,-0.0445,0
23571833,0.6452,-0.0048,-0.0138,0.7639,0.0238,-0.0032,-0.0352,0
23572000,0.6452,-0.0048,-0.0138,0.7639,-0.0083,-0.0044,-0.0381,0
23572167,0.6452,-0.0048,-0.0138,0.7639,0.0162,-0.0016,-0.0450,0
23572333,0.6452,-0.0048,-0.0138,0.7639,0.0116,0.0018,-0.0386,0
23572500,0.6452,-0.0048,-0.0138,0.7639,0.0099,-0.0020,-0.0256,0
23572667,0.6452,-0.0048,-0.0139,0.7639,0.0126,-0.0042,-0.0405,0
23572834,0.6452,-0.0048,-0.0139,0.7639,-0.0025,0.0095,-0.0432,0
23573000,0.6452,-0.0048,-0.0138,0.7639,-0.0061,-0.0148,-0.0255,0
23573167,0.6452,-0.0048,-0.0138,0.7639,0.0141,-0.0051,-0.0440,0
23573334,0.6452,-0.0048,-0.0139,0.7639,0.0020,-0.0098,-0.0282,0
23573500,0.6452,-0.0048,-0.0138,0.7639,0.0114,0.0013,-0.0417,0
23573667,0.6452,-0.0048,-0.0138,0.7639,-0.0059,-0.0072,-0.0333,0
23573834,0.6452,-0.0048,-0.0139,0.7639,-0.0053,0.0042,-0.0254,0
23574000,0.6452,-0.0048,-0.0138,0.7639,0.0099,-0.0034,-0.0330,0
23574167,0.6452,-0.0048,-0.0138,0.7639,0.0069,-0.0111,-0.0508,0
23574334,0.6452,-0.0048,-0.0138,0.7639,-0.0037,-0.0062,-0.0315,0
23574500,0.6452,-0.0048,-0.0138,0.7639,0.0088,0.0030,-0.0289,0
23574667,0.6452,-0.0048,-0.0138,0.7639,-0.0003,-0.0130,-0.0288,0
23574834,0.6452,-0.0048,-0.0138,0.7639,0.0002,0.0111,-0.0222,0
23575000,0.6452,-0.0048,-0.0138,0.7639,0.0178,-0.0031,-0.0398,0
23575167,0.6452,-0.0048,-0.0138,0.7639,-0.0081,-0.0089,-0.0450,0
23575334,0.6452,-0.0048,-0.0138,0.7639,-0.0004,0.0014,-0.0373,0
23575500,0.6452,-0.0048,-0.0138,0.7639,0.0139,-0.0033,-0.0316,0
23575667,0.6452,-0.0048,-0.0138,0.7639,-0.0012,-0.0066,-0.0511,0
23575834,0.6452,-0.0048,-0.0138,0.7639,-0.0021,0.0087,-0.0366,0
23576000,0.6452,-0.0048,-0.0138,0.7639,0.0050,-0.0022,-0.0542,0
23576167,0.6452,-0.0048,-0.0138,0.7639,0.0067,-0.0078,-0.0450,0
23576334,0.6452,-0.0048,-0.0138,0.7639,0.0080,-0.0100,-0.0500,0
23576500,0.6452,-0.0048,-0.0138,0.7639,0.0066,-0.0106,-0.0336,0
23576667,0.6452,-0.0048,-0.0138,0.7639,0.0083,-0.0201,-0.0399,0
23576834,0.6452,-0.0048,-0.0138,0.7639,-0.0038,-0.0137,-0.0340,0
23577000,0.6452,-0.0048,-0.0138,0.7639,0.0130,0.0074,-0.0415,0
23577167,0.6452,-0.0048,-0.0138,0.7639,0.0022,0.0029,-0.0454,0
23577334,0.6452,-0.0048,-0.0138,0.7639,-0.0054,-0.0048,-0.0531,0
23577500,0.6452,-0.0048,-0.0138,0.7639,0.0088,-0.0066,-0.0199,0
23577667,0.6452,-0.0048,-0.0138,0.7639,0.0008,0.0065,-0.0504,0
23577834,0.6452,-0.0048,-0.0138,0.7639,0.0042,0.0164,-0.0487,0
23578000,0.6452,-0.0048,-0.0138,0.7639,0.0152,0.0008,-0.0451,0
23578167,0.6452,-0.0048,-0.0138,0.7639,0.0031,-0.0005,-0.0148,0
23578334,0.6452,-0.0048,-0.0138,0.7639,0.0044,0.0008,-0.0254,0
23578500,0.6452,-0.0048,-0.0138,0.7639,0.0085,0.0007,-0.0239,0
23578667,0.6452,-0.0048,-0.0138,0.7639,-0.0220,0.0047,-0.0458,0
23578834,0.6452,-0.0048,-0.0138,0.7639,-0.0033,-0.0016,-0.0546,0
23579000,0.6452,-0.0048,-0.0138,0.7639,0.0035,-0.0099,-0.0381,0
23579167,0.6452,-0.0049,-0.0138,0.7639,0.0046,0.0097,-0.0229,0
23579334,0.6452,-0.0049,-0.0138,0.7639,0.0139,-0.0017,-0.0311,0
23579500,0.6452,-0.0048,-0.0138,0.7639,0.0030,-0.0008,-0.0246,0
23579667,0.6452,-0.0048,-0.0138,0.7639,-0.0036,0.0018,-0.0297,0
23579834,0.6452,-0.0048,-0.0138,0.7639,0.0237,-0.0030,-0.0238,0
23580000,0.6452,-0.0048,-0.0138,0.7639,-0.0003,0.0001,-0.0227,0
23580167,0.6452,-0.0049,-0.0138,0.7639,0.0073,0.0049,-0.0186,0
23580334,0.6452,-0.0049,-0.0138,0.7639,0.0010,-0.0032,-0.0718,0
23580500,0.6452,-0.0048,-0.0138,0.7639,0.0124,0.0001,-0.0397,0
23580667,0.6452,-0.0048,-0.0138,0.7639,0.0034,-0.0105,-0.0345,0
23580834,0.6452,-0.0049,-0.0138,0.7639,0.0025,-0.0086,-0.0427,0
23581000,0.6452,-0.0049,-0.0138,0.7639,0.0091,-0.0060,-0.0411,0
23581167,0.6452,-0.0049,-0.0138,0.7639,-0.0033,-0.0036,-0.0334,0
23581334,0.6452,-0.0049,-0.0138,0.7639,-0.0124,-0.0043,-0.0278,0
23581500,0.6452,-0.0049,-0.0138,0.7639,0.0061,-0.0050,-0.0452,0
23581667,0.6452,-0.0048,-0.0138,0.7639,0.0063,-0.0091,-0.0568,0
23581834,0.6452,-0.0048,-0.0138,0.7639,0.0062,0.0054,-0.0269,0
23582000,0.6452,-0.0048,-0.0138,0.7639,0.0073,-0.0001,-0.0341,0
23582167,0.6452,-0.0048,-0.0138,0.7639,0.0030,-0.0004,-0.0358,0
23582334,0.6452,-0.0049,-0.0138,0.7639,0.0082,0.0065,-0.0351,0
23582500,0.6452,-0.0049,-0.0138,0.7639,-0.0074,0.0037,-0.0241,0
23582667,0.6451,-0.0048,-0.0138,0.7639,0.0009,0.0025,-0.0120,0
23582834,0.6451,-0.0048,-0.0138,0.7639,0.0074,-0.0090,-0.0414,0
23583000,0.6451,-0.0048,-0.0138,0.7639,0.0130,-0.0050,-0.0454,0
23583167,0.6451,-0.0048,-0.0138,0.7639,0.0153,-0.0039,-0.0255,0
23583334,0.6451,-0.0048,-0.0138,0.7639,0.0094,-0.0065,-0.0313,0
23583500,0.6451,-0.0049,-0.0138,0.7639,0.0053,0.0005,-0.0265,0
23583667,0.6451,-0.0049,-0.0138,0.7639,-0.0135,0.0040,-0.0442,0
23583834,0.6451,-0.0049,-0.0138,0.7639,0.0218,-0.0107,-0.0327,0
23584000,0.6451,-0.0049,-0.0138,0.7639,0.0026,-0.0078,-0.0301,0
23584167,0.6451,-0.0049,-0.0138,0.7639,0.0050,0.0039,-0.0302,0
23584334,0.6451,-0.0049,-0.0138,0.7639,0.0023,-0.0026,-0.0379,0
23584500,0.6451,-0.0049,-0.0138,0.7639,0.0096,0.0001,-0.0458,0
23584667,0.6451,-0.0049,-0.0138,0.7639,0.0150,0.0119,-0.0271,0
23584834,0.6451,-0.0049,-0.0138,0.7639,-0.0005,-0.0008,-0.0265,0
23585000,0.6451,-0.0049,-0.0138,0.7639,0.0155,-0.0087,-0.0415,0
23585167,0.6451,-0.0049,-0.0138,0.7639,0.0167,-0.0056,-0.0448,0
23585334,0.6451,-0.0049,-0.0138,0.7639,0.0030,-0.0191,-0.0330,0
23585500,0.6451,-0.0049,-0.0138,0.7639,0.0018,-0.0105,-0.0323,0
23585667,0.6451,-0.0049,-0.0138,0.7639,-0.0031,0.0014,-0.0257,0
23585834,0.6451,-0.0049,-0.0138,0.7639,0.0039,-0.0012,-0.0568,0
23586000,0.6451,-0.0049,-0.0138,0.7639,-0.0080,-0.0049,-0.0225,0
23586167,0.6451,-0.0049,-0.0138,0.7639,0.0075,-0.0036,-0.0358,0
23586334,0.6451,-0.0049,-0.0138,0.7639,-0.0144,-0.0057,-0.0319,0
23586500,0.6451,-0.0049,-0.0138,0.7639,0.0200,-0.0134,-0.0431,0
23586667,0.6451,-0.0049,-0.0138,0.7639,0.0024,-0.0045,-0.0299,0
23586834,0.6451,-0.0049,-0.0138,0.7639,-0.0142,0.0121,-0.0317,0
23587000,0.6451,-0.0049,-0.0138,0.7639,0.0014,-0.0073,-0.0445,0
23587167,0.6451,-0.0049,-0.0138,0.7639,-0.0060,0.0111,-0.0457,0
23587334,0.6451,-0.0049,-0.0138,0.7639,0.0031,0.0150,-0.0409,0
23587500,0.6451,-0.0049,-0.0138,0.7639,0.0063,-0.0010,-0.0222,0
23587667,0.6451,-0.0048,-0.0139,0.7639,0.0023,-0.0046,-0.0426,0
23587834,0.6451,-0.0048,-0.0139,0.7639,0.0177,-0.0063,-0.0329,0
23588000,0.6451,-0.0048,-0.0138,0.7639,0.0099,-0.0089,-0.0381,0
23588167,0.6451,-0.0048,-0.0139,0.7639,0.0020,0.0130,-0.0461,0
23588334,0.6451,-0.0048,-0.0139,0.7639,-0.0088,0.0048,-0.0497,0
23588500,0.6451,-0.0048,-0.0139,0.7639,0.0108,0.0075,-0.0489,0
23588667,0.6451,-0.0048,-0.0139,0.7639,0.0063,0.0227,-0.0494,0
23588834,0.6451,-0.0048,-0.0139,0.7639,0.0207,0.0072,-0.0421,0
23589000,0.6451,-0.0048,-0.0139,0.7639,0.0085,0.0087,-0.0568,0
23589167,0.6451,-0.0048,-0.0139,0.7639,-0.0033,0.0002,-0.0334,0
23589334,0.6451,-0.0048,-0.0139,0.7639,0.0063,-0.0168,-0.0241,0
23589501,0.6451,-0.0048,-0.0139,0.7639,0.0032,-0.0019,-0.0438,0
23589667,0.6451,-0.0048,-0.0139,0.7639,-0.0064,-0.0068,-0.0253,0
23589834,0.6451,-0.0048,-0.0139,0.7639,-0.0085,-0.0112,-0.0254,0
23590001,0.6451,-0.0048,-0.0139,0.7639,-0.0006,-0.0112,-0.0415,0
23590167,0.6451,-0.0048,-0.0139,0.7639,0.0042,-0.0069,-0.0394,0
23590334,0.6451,-0.0048,-0.0139,0.7639,0.0255,-0.0012,-0.0300,0
23590501,0.6451,-0.0048,-0.0139,0.7639,0.0257,0.0018,-0.0327,0
23590667,0.6451,-0.0048,-0.0139,0.7639,-0.0082,-0.0061,-0.0411,0
23590834,0.6451,-0.0048,-0.0139,0.7639,-0.0102,0.0046,-0.0458,0
23591001,0.6451,-0.0048,-0.0139,0.7639,-0.0019,-0.0058,-0.0142,0
23591167,0.6451,-0.0048,-0.0139,0.7639,0.0017,-0.0068,-0.0421,0
23591334,0.6451,-0.0048,-0.0139,0.7639,0.0058,0.0064,-0.0481,0
23591501,0.6451,-0.0049,-0.0139,0.7639,-0.0029,-0.0021,-0.0483,0
23591667,0.6451,-0.0049,-0.0139,0.7639,-0.0004,0.0031,-0.0262,0
23591834,0.6451,-0.0049,-0.0139,0.7639,0.0035,-0.0129,-0.0376,0
23592001,0.6451,-0.0049,-0.0139,0.7639,0.0136,-0.0091,-0.0485,0
23592167,0.6451,-0.0049,-0.0139,0.7640,0.0089,-0.0019,-0.0321,0
23592334,0.6451,-0.0049,-0.0139,0.7639,0.0090,-0.0046,-0.0375,0
23592501,0.6451,-0.0049,-0.0139,0.7639,-0.0006,0.0011,-0.0545,0
23592667,0.6451,-0.0049,-0.0139,0.7639,0.0071,-0.0035,-0.0139,0
23592834,0.6451,-0.0049,-0.0139,0.7639,0.0054,0.0130,-0.0529,0
23593001,0.6451,-0.0049,-0.0139,0.7639,-0.0000,-0.0045,-0.0282,0
23593167,0.6451,-0.0049,-0.0139,0.7639,0.0002,-0.0156,-0.0448,0
23593334,0.6451,-0.0049,-0.0139,0.7639,0.0104,0.0018,-0.0314,0
23593501,0.6451,-0.0049,-0.0139,0.7639,0.0000,0.0043,-0.0377,0
23593667,0.6451,-0.0049,-0.0139,0.7639,0.0075,-0.0025,-0.0116,0
23593834,0.6451,-0.0049,-0.0139,0.7639,-0.0063,-0.0102,-0.0087,0
23594001,0.6451,-0.0049,-0.0139,0.7639,-0.0060,0.0029,-0.0257,0
23594167,0.6451,-0.0049,-0.0139,0.7639,-0.0061,-0.0002,-0.0376,0
23594334,0.6451,-0.0049,-0.0139,0.7639,-0.0018,0.0102,-0.0444,0
23594501,0.6451,-0.0049,-0.0139,0.7639,-0.0092,-0.0130,-0.0440,0
23594667,0.6451,-0.0049,-0.0139,0.7639,-0.0015,-0.0085,-0.0469,0
23594834,0.6451,-0.0049,-0.0139,0.7639,-0.0040,0.0049,-0.0316,0
23595001,0.6451,-0.0049,-0.0139,0.7639,-0.0110,-0.0184,-0.0337,0
23595167,0.6451,-0.0049,-0.0138,0.7639,-0.0070,0.0053,-0.0257,0
23595334,0.6451,-0.0049,-0.0138,0.7639,0.0091,0.0044,-0.0442,0
23595501,0.6451,-0.0049,-0.0138,0.7639,-0.0011,0.0065,-0.0235,0
23595667,0.6451,-0.0049,-0.0138,0.7640,-0.0026,0.0046,-0.0322,0
23595834,0.6451,-0.0049,-0.0138,0.7640,0.0139,-0.0056,-0.0291,0
23596001,0.6451,-0.0049,-0.0138,0.7640,0.0080,0.0015,-0.0382,0
23596167,0.6451,-0.0049,-0.0138,0.7639,0.0002,-0.0056,-0.0443,0
23596334,0.6451,-0.0049,-0.0138,0.7639,-0.0086,0.0013,-0.0317,0
23596501,0.6451,-0.0049,-0.0138,0.7639,0.0115,0.0151,-0.0387,0
23596667,0.6451,-0.0049,-0.0138,0.7640,0.0161,-0.0051,-0.0360,0
23596834,0.6451,-0.0049,-0.0138,0.7640,0.0031,-0.0008,-0.0082,0
23597001,0.6451,-0.0049,-0.0138,0.7640,-0.0008,0.0128,-0.0235,0
23597167,0.6451,-0.0049,-0.0138,0.7640,0.0064,0.0116,-0.0151,0
23597334,0.6451,-0.0049,-0.0138,0.7640,-0.0021,0.0040,-0.0329,0
23597501,0.6451,-0.0049,-0.0138,0.7640,0.0187,0.0099,-0.0460,0
23597667,0.6451,-0.0049,-0.0138,0.7640,-0.0030,-0.0083,-0.0379,0
23597834,0.6451,-0.0049,-0.0138,0.7640,0.0044,-0.0058,-0.0675,0
23598001,0.6451,-0.0049,-0.0138,0.7640,-0.0062,0.0018,-0.0482,0
23598167,0.6451,-0.0049,-0.0138,0.7640,0.0029,0.0102,-0.0392,0
23598334,0.6451,-0.0049,-0.0138,0.7640,-0.0106,-0.0050,-0.0397,0
23598501,0.6451,-0.0049,-0.0138,0.7640,0.0141,0.0111,-0.0618,0
23598667,0.6451,-0.0049,-0.0138,0.7640,0.0068,-0.0065,-0.0168,0
23598834,0.6451,-0.0049,-0.0138,0.7640,-0.0045,-0.0149,-0.0364,0
23599001,0.6451,-0.0049,-0.0138,0.7640,0.0118,-0.0028,-0.0431,0
23599167,0.6451,-0.0049,-0.0138,0.7640,-0.0109,-0.0005,-0.0313,0
23599334,0.6451,-0.0049,-0.0138,0.7640,-0.0043,-0.0056,-0.0433,0
23599501,0.6451,-0.0049,-0.0138,0.7640,0.0006,0.0007,-0.0442,0
23599667,0.6451,-0.0049,-0.0138,0.7640,0.0100,-0.0020,-0.0436,0
23599834,0.6451,-0.0049,-0.0138,0.7640,0.0008,0.0018,-0.0332,0
23600001,0.6451,-0.0049,-0.0138,0.7640,0.0119,0.0061,-0.0397,0
23600167,0.6450,-0.0049,-0.0138,0.7640,0.0032,0.0088,-0.0593,0
23600334,0.6451,-0.0049,-0.0138,0.7640,-0.0010,-0.0089,-0.0244,0
23600501,0.6450,-0.0049,-0.0138,0.7640,0.0123,-0.0042,-0.0259,0
23600667,0.6450,-0.0049,-0.0138,0.7640,0.0048,-0.0020,-0.0500,0
23600834,0.6451,-0.0049,-0.0138,0.7640,-0.0037,-0.0043,-0.0362,0
23601001,0.6451,-0.0049,-0.0138,0.7640,0.0158,-0.0051,-0.0314,0
23601167,0.6450,-0.0049,-0.0138,0.7640,0.0125,0.0034,-0.0292,0
23601334,0.6450,-0.0049,-0.0138,0.7640,-0.0059,0.0072,-0.0305,0
23601501,0.6450,-0.0049,-0.0138,0.7640,0.0082,0.0015,-0.0436,0
23601667,0.6450,-0.0049,-0.0138,0.7640,0.0053,0.0067,-0.0435,0
23601834,0.6450,-0.0049,-0.0138,0.7640,0.0063,-0.0011,-0.0491,0
23602001,0.6450,-0.0049,-0.0138,0.7640,0.0039,-0.0242,-0.0202,0
23602167,0.6450,-0.0049,-0.0138,0.7640,0.0096,0.0016,-0.0444,0
23602334,0.6450,-0.0049,-0.0138,0.7640,0.0107,-0.0054,-0.0538,0
23602501,0.6450,-0.0049,-0.0138,0.7640,0.0048,-0.0043,-0.0478,0
23602667,0.6450,-0.0049,-0.0138,0.7640,-0.0016,-0.0012,-0.0111,0
23602834,0.6450,-0.0049,-0.0138,0.7640,0.0052,-0.0049,-0.0403,0
23603001,0.6450,-0.0049,-0.0138,0.7640,0.0024,-0.0007,-0.0461,0
23603167,0.6450,-0.0049,-0.0138,0.7640,-0.0053,0.0089,-0.0252,0
23603334,0.6450,-0.0049,-0.0138,0.7640,-0.0143,0.0045,-0.0205,0
23603501,0.6450,-0.0049,-0.0138,0.7640,-0.0001,0.0029,-0.0485,0
23603667,0.6450,-0.0049,-0.0138,0.7640,0.0208,-0.0082,-0.0326,0
23603834,0.6450,-0.0049,-0.0138,0.7640,0.0110,0.0080,-0.0601,0
23604001,0.6450,-0.0049,-0.0138,0.7640,0.0012,-0.0044,-0.0336,0
23604167,0.6450,-0.0049,-0.0138,0.7640,-0.0043,-0.0067,-0.0433,0
23604334,0.6450,-0.0049,-0.0138,0.7640,-0.0016,-0.0047,-0.0205,0
23604501,0.6450,-0.0049,-0.0138,0.7640,0.0066,-0.0045,-0.0307,0
23604667,0.6450,-0.0049,-0.0138,0.7640,0.0056,0.0163,-0.0263,0
23604834,0.6450,-0.0049,-0.0138,0.7640,0.0076,0.0108,-0.0224,0
23605001,0.6450,-0.0049,-0.0138,0.7640,0.0108,-0.0044,-0.0338,0
23605167,0.6450,-0.0049,-0.0138,0.7640,-0.0038,-0.0047,-0.0534,0
23605334,0.6450,-0.0049,-0.0138,0.7640,0.0114,-0.0068,-0.0387,0
23605501,0.6450,-0.0049,-0.0138,0.7640,-0.0043,0.0114,-0.0194,0
23605667,0.6450,-0.0049,-0.0138,0.7640,-0.0024,0.0022,-0.0295,0
23605834,0.6450,-0.0049,-0.0138,0.7640,0.0057,0.0036,-0.0465,0
23606001,0.6450,-0.0049,-0.0138,0.7640,-0.0136,-0.0104,-0.0287,0
23606168,0.6450,-0.0049,-0.0138,0.7640,0.0035,-0.0062,-0.0132,0
23606334,0.6450,-0.0049,-0.0138,0.7640,-0.0056,0.0175,-0.0197,0
23606501,0.6450,-0.0049,-0.0138,0.7640,0.0090,0.0024,-0.0163,0
23606668,0.6450,-0.0050,-0.0138,0.7640,-0.0120,-0.0047,-0.0246,0
23606834,0.6450,-0.0050,-0.0138,0.7640,0.0192,0.0007,-0.0470,0
23607001,0.6450,-0.0049,-0.0138,0.7640,-0.0057,-0.0071,-0.0163,0
23607168,0.6450,-0.0049,-0.0138,0.7640,0.0074,-0.0106,-0.0251,0
23607334,0.6450,-0.0049,-0.0138,0.7640,-0.0045,-0.0051,-0.0328,0
23607501,0.6450,-0.0049,-0.0138,0.7640,0.0098,0.0120,-0.0201,0
23607668,0.6450,-0.0049,-0.0138,0.7640,0.0047,-0.0012,-0.0469,0
23607834,0.6450,-0.0049,-0.0138,0.7640,-0.0023,0.0054,-0.0369,0
23608001,0.6450,-0.0049,-0.0138,0.7640,-0.0103,0.0036,-0.0423,0
23608168,0.6450,-0.0049,-0.0138,0.7640,-0.0040,0.0079,-0.0631,0
23608334,0.6450,-0.0049,-0.0138,0.7640,0.0054,-0.0064,-0.0397,0
23608501,0.6450,-0.0049,-0.0138,0.7640,0.0070,0.0039,-0.0379,0
23608668,0.6450,-0.0049,-0.0138,0.7640,-0.0022,0.0015,-0.0491,0
23608834,0.6450,-0.0049,-0.0138,0.7640,-0.0023,0.0005,-0.0546,0
23609001,0.6450,-0.0048,-0.0138,0.7640,0.0088,-0.0001,-0.0288,0
23609168,0.6450,-0.0048,-0.0138,0.7640,0.0134,0.0130,-0.0358,0
23609334,0.6450,-0.0049,-0.0138,0.7640,0.0166,0.0047,-0.0432,0
23609501,0.6450,-0.0049,-0.0138,0.7640,-0.0040,-0.0000,-0.0332,0
23609668,0.6450,-0.0049,-0.0138,0.7640,-0.0039,-0.0022,-0.0464,0
23609834,0.6450,-0.0049,-0.0138,0.7640,-0.0048,-0.0057,-0.0597,0
23610001,0.6450,-0.0049,-0.0138,0.7640,0.0029,-0.0041,-0.0322,0
23610168,0.6450,-0.0049,-0.0138,0.7640,0.0137,-0.0050,-0.0330,0
23610334,0.6451,-0.0048,-0.0138,0.7640,0.0047,-0.0073,-0.0458,0
23610501,0.6451,-0.0048,-0.0138,0.7640,0.0037,-0.0072,-0.0554,0
23610668,0.6451,-0.0048,-0.0138,0.7640,0.0079,-0.0052,-0.0290,0
23610834,0.6451,-0.0048,-0.0138,0.7640,0.0085,-0.0097,-0.0201,0
23611001,0.6451,-0.0048,-0.0138,0.7640,0.0040,-0.0116,-0.0203,0
23611168,0.6451,-0.0048,-0.0138,0.7640,0.0091,0.0024,-0.0512,0
23611334,0.6451,-0.0048,-0.0138,0.7640,-0.0016,0.0082,-0.0213,0
23611501,0.6450,-0.0048,-0.0138,0.7640,-0.0004,0.0050,-0.0101,0
23611668,0.6450,-0.0048,-0.0138,0.7640,-0.0034,-0.0041,-0.0433,0
23611834,0.6450,-0.0048,-0.0138,0.7640,0.0131,-0.0064,-0.0231,0
23612001,0.6450,-0.0048,-0.0138,0.7640,-0.0065,0.0018,-0.0416,0
23612168,0.6450,-0.0048,-0.0138,0.7640,0.0039,0.0010,-0.0325,0
23612334,0.6450,-0.0048,-0.0138,0.7640,-0.0012,-0.0072,-0.0273,0
23612501,0.6450,-0.0048,-0.0138,0.7640,0.0047,0.0047,-0.0469,0
23612668,0.6450,-0.0048,-0.0138,0.7640,-0.0075,-0.0040,-0.0225,0
23612834,0.6450,-0.0048,-0.0138,0.7640,-0.0073,0.0136,-0.0328,0
23613001,0.6450,-0.0048,-0.0138,0.7640,0.0028,0.0116,-0.0600,0
23613168,0.6450,-0.0048,-0.0138,0.7640,-0.0048,-0.0182,-0.0247,0
23613334,0.6450,-0.0048,-0.0137,0.7640,0.0109,-0.0025,-0.0247,0
23613501,0.6450,-0.0048,-0.0137,0.7640,0.0086,-0.0119,-0.0377,0
23613668,0.6450,-0.0048,-0.0137,0.7640,0.0036,0.0083,-0.0435,0
23613834,0.6450,-0.0048,-0.0137,0.7640,0.0033,0.0016,-0.0632,0
23614001,0.6450,-0.0048,-0.0137,0.7640,-0.0001,-0.0016,-0.0368,0
23614168,0.6450,-0.0048,-0.0137,0.7640,-0.0017,0.0006,-0.0218,0
23614334,0.6450,-0.0048,-0.0137,0.7640,-0.0059,0.0096,-0.0486,0
23614501,0.6450,-0.0048,-0.0137,0.7640,0.0117,0.0075,-0.0326,0
23614668,0.6450,-0.0048,-0.0137,0.7640,0.0061,-0.0011,-0.0426,0
23614834,0.6450,-0.0048,-0.0137,0.7640,0.0185,-0.0069,-0.0312,0
23615001,0.6450,-0.0048,-0.0137,0.7640,0.0114,0.0022,-0.0330,0
23615168,0.6450,-0.0048,-0.0137,0.7640,0.0125,0.0036,-0.0345,0
23615334,0.6450,-0.0048,-0.0137,0.7640,0.0020,-0.0003,-0.0292,0
23615501,0.6450,-0.0048,-0.0137,0.7640,0.0084,-0.0067,-0.0501,0
23615668,0.6450,-0.0048,-0.0137,0.7640,0.0165,-0.0118,-0.0154,0
23615834,0.6450,-0.0048,-0.0137,0.7640,0.0127,0.0043,-0.0495,0
23616001,0.6450,-0.0048,-0.0137,0.7640,0.0074,0.0060,-0.0363,0
23616168,0.6450,-0.0048,-0.0137,0.7640,0.0207,0.0103,-0.0331,0
23616334,0.6450,-0.0048,-0.0137,0.7640,-0.0011,-0.0038,-0.0249,0
23616501,0.6450,-0.0048,-0.0137,0.7640,0.0033,-0.0082,-0.0315,0
23616668,0.6450,-0.0048,-0.0137,0.7640,0.0169,-0.0076,-0.0412,0
23616834,0.6450,-0.0048,-0.0137,0.7640,0.0006,-0.0022,-0.0591,0
23617001,0.6450,-0.0048,-0.0137,0.7640,0.0040,-0.0078,-0.0283,0
23617168,0.6450,-0.0048,-0.0137,0.7640,0.0192,0.0116,-0.0352,0
23617334,0.6450,-0.0048,-0.0137,0.7640,0.0117,-0.0008,-0.0388,0
23617501,0.6450,-0.0048,-0.0137,0.7640,0.0057,0.0006,-0.0512,0
23617668,0.6450,-0.0048,-0.0138,0.7640,0.0084,-0.0087,-0.0389,0
23617834,0.6450,-0.0048,-0.0137,0.7640,-0.0025,0.0078,-0.0212,0
23618001,0.6450,-0.0048,-0.0137,0.7640,0.0081,0.0017,-0.0202,0
23618168,0.6450,-0.0048,-0.0138,0.7640,-0.0041,0.0067,-0.0413,0
23618334,0.6450,-0.0048,-0.0138,0.7641,0.0108,-0.0096,-0.0498,0
23618501,0.6450,-0.0048,-0.0138,0.7641,0.0071,-0.0139,-0.0361,0
23618668,0.6450,-0.0048,-0.0137,0.7641,-0.0015,0.0011,-0.0543,0
23618834,0.6450,-0.0048,-0.0138,0.7641,0.0075,-0.0086,-0.0446,0
23619001,0.6450,-0.0048,-0.0138,0.7641,0.0081,-0.0071,-0.0387,0
23619168,0.6450,-0.0048,-0.0138,0.7641,0.0008,0.0065,-0.0184,0
23619334,0.6450,-0.0048,-0.0138,0.7641,0.0124,-0.0141,-0.0280,0
23619501,0.6450,-0.0048,-0.0138,0.7641,0.0089,-0.0065,-0.0353,0
23619668,0.6450,-0.0048,-0.0138,0.7641,-0.0006,0.0006,-0.0376,0
23619834,0.6450,-0.0048,-0.0137,0.7641,0.0077,0.0099,-0.0235,0
23620001,0.6450,-0.0048,-0.0138,0.7641,0.0180,-0.0030,-0.0347,0
23620168,0.6450,-0.0048,-0.0138,0.7641,0.0052,0.0007,-0.0474,0
23620334,0.6450,-0.0048,-0.0137,0.7641,-0.0068,-0.0045,-0.0266,0
23620501,0.6450,-0.0048,-0.0137,0.7641,-0.0062,0.0005,-0.0254,0
23620668,0.6450,-0.0048,-0.0137,0.7641,0.0118,-0.0173,-0.0102,0
23620834,0.6450,-0.0048,-0.0137,0.7641,0.0084,0.0050,-0.0364,0
23621001,0.6450,-0.0048,-0.0137,0.7641,0.0023,-0.0005,-0.0556,0
23621168,0.6450,-0.0048,-0.0137,0.7641,-0.0049,-0.0028,-0.0376,0
23621334,0.6450,-0.0048,-0.0137,0.7641,0.0023,-0.0028,-0.0480,0
23621501,0.6450,-0.0048,-0.0137,0.7641,-0.0123,-0.0084,-0.0420,0
23621668,0.6450,-0.0048,-0.0137,0.7641,0.0111,-0.0029,-0.0379,0
23621834,0.6450,-0.0047,-0.0137,0.7641,0.0038,0.0108,-0.0169,0
23622001,0.6450,-0.0047,-0.0137,0.7641,0.0069,0.0012,-0.0151,0
23622168,0.6450,-0.0047,-0.0137,0.7641,0.0097,0.0001,-0.0390,0
23622334,0.6450,-0.0047,-0.0137,0.7641,0.0064,-0.0001,-0.0222,0
23622501,0.6450,-0.0047,-0.0137,0.7641,0.0109,-0.0018,-0.0261,0
23622668,0.6450,-0.0048,-0.0137,0.7641,0.0161,0.0051,-0.0389,0
23622835,0.6450,-0.0048,-0.0137,0.7641,0.0094,0.0102,-0.0356,0
23623001,0.6450,-0.0048,-0.0137,0.7641,0.0068,-0.0072,-0.0546,0
23623168,0.6450,-0.0048,-0.0137,0.7641,0.0103,-0.0078,-0.0394,0
23623335,0.6450,-0.0047,-0.0137,0.7641,0.0085,-0.0034,-0.0281,0
23623501,0.6450,-0.0047,-0.0137,0.7641,0.0137,-0.0097,-0.0424,0
23623668,0.6450,-0.0047,-0.0137,0.7641,0.0224,0.0043,-0.0357,0
23623835,0.6450,-0.0047,-0.0137,0.7641,0.0099,-0.0041,-0.0283,0
23624001,0.6450,-0.0047,-0.0137,0.7641,0.0020,-0.0038,-0.0450,0
23624168,0.6450,-0.0047,-0.0137,0.7641,0.0012,-0.0052,-0.0106,0
23624335,0.6450,-0.0047,-0.0137,0.7641,0.0044,0.0100,-0.0353,0
23624501,0.6450,-0.0047,-0.0137,0.7641,0.0089,-0.0063,-0.0414,0
23624668,0.6450,-0.0047,-0.0137,0.7641,0.0035,-0.0102,-0.0454,0
23624835,0.6450,-0.0047,-0.0137,0.7641,0.0061,0.0007,-0.0127,0
23625001,0.6450,-0.0048,-0.0137,0.7641,0.0047,0.0030,-0.0224,0
23625168,0.6450,-0.0047,-0.0137,0.7641,0.0210,-0.0082,-0.0436,0
23625335,0.6450,-0.0047,-0.0137,0.7641,0.0186,0.0090,-0.0307,0
23625501,0.6450,-0.0047,-0.0137,0.7641,0.0140,-0.0046,-0.0622,0
23625668,0.6450,-0.0047,-0.0137,0.7641,0.0132,0.0072,-0.0310,0
23625835,0.6450,-0.0048,-0.0137,0.7641,0.0034,0.0105,-0.0453,0
23626001,0.6450,-0.0047,-0.0137,0.7641,0.0066,-0.0042,-0.0564,0
23626168,0.6450,-0.0048,-0.0137,0.7641,0.0070,-0.0112,-0.0081,0
23626335,0.6450,-0.0047,-0.0137,0.7641,0.0177,-0.0068,-0.0371,0
23626501,0.6450,-0.0047,-0.0137,0.7641,-0.0043,-0.0129,-0.0392,0
23626668,0.6450,-0.0047,-0.0137,0.7641,0.0080,-0.0039,-0.0450,0
23626835,0.6450,-0.0047,-0.0137,0.7641,0.0068,-0.0006,-0.0270,0
23627001,0.6450,-0.0047,-0.0137,0.7641,0.0054,-0.0104,-0.0177,0
23627168,0.6450,-0.0047,-0.0137,0.7641,0.0021,-0.0028,-0.0407,0
23627335,0.6450,-0.0047,-0.0137,0.7641,0.0010,-0.0148,-0.0306,0
23627501,0.6450,-0.0047,-0.0137,0.7641,0.0180,0.0100,-0.0268,0
23627668,0.6450,-0.0049,-0.0138,0.7641,-0.0056,-0.0039,-0.0226,0
23627835,0.6450,-0.0049,-0.0138,0.7641,0.0074,-0.0011,-0.0406,0
23628001,0.6450,-0.0049,-0.0138,0.7641,0.0176,-0.0067,-0.0309,0
23628168,0.6450,-0.0049,-0.0138,0.7641,0.0093,0.0051,-0.0493,0
23628335,0.6450,-0.0049,-0.0138,0.7641,0.0061,0.0029,-0.0243,0
23628501,0.6450,-0.0049,-0.0138,0.7641,-0.0069,-0.0088,-0.0206,0
23628668,0.6450,-0.0049,-0.0138,0.7641,0.0022,-0.0019,-0.0368,0
23628835,0.6450,-0.0049,-0.0138,0.7641,0.0014,0.0062,-0.0151,0
23629001,0.6450,-0.0048,-0.0138,0.7641,0.0227,0.0029,-0.0302,0
23629168,0.6450,-0.0049,-0.0138,0.7641,-0.0017,-0.0037,-0.0295,0
23629335,0.6450,-0.0049,-0.0138,0.7641,0.0105,-0.0029,-0.0063,0
23629501,0.6450,-0.0049,-0.0138,0.7641,0.0043,-0.0034,-0.0467,0
23629668,0.6450,-0.0049,-0.0138,0.7641,0.0032,0.0020,-0.0474,0
23629835,0.6450,-0.0049,-0.0138,0.7641,-0.0024,0.0019,-0.0390,0
23630001,0.6450,-0.0049,-0.0138,0.7641,0.0075,-0.0027,-0.0193,0
23630168,0.6450,-0.0049,-0.0138,0.7641,0.0029,-0.0117,-0.0662,0
23630335,0.6450,-0.0049,-0.0138,0.7641,-0.0029,-0.0085,-0.0491,0
23630501,0.6450,-0.0049,-0.0138,0.7641,-0.0044,0.0035,-0.0278,0
23630668,0.6450,-0.0049,-0.0138,0.7641,-0.0024,-0.0094,-0.0311,0
23630835,0.6450,-0.0049,-0.0138,0.7641,0.0066,0.0011,-0.0158,0
23631001,0.6450,-0.0049,-0.0138,0.7641,0.0051,0.0034,-0.0475,0
23631168,0.6450,-0.0049,-0.0138,0.7641,0.0140,-0.0030,-0.0346,0
23631335,0.6450,-0.0049,-0.0138,0.7641,-0.0090,-0.0150,-0.0396,0
23631501,0.6450,-0.0049,-0.0138,0.7641,0.0072,-0.0092,-0.0411,0
23631668,0.6450,-0.0049,-0.0138,0.7641,-0.0069,-0.0089,-0.0422,0
23631835,0.6450,-0.0049,-0.0138,0.7641,0.0064,-0.0018,-0.0342,0
23632001,0.6450,-0.0049,-0.0138,0.7641,0.0076,0.0013,-0.0273,0
23632168,0.6450,-0.0049,-0.0138,0.7641,0.0012,-0.0084,-0.0441,0
23632335,0.6450,-0.0049,-0.0138,0.7641,-0.0107,-0.0057,-0.0390,0
23632501,0.6450,-0.0048,-0.0138,0.7641,-0.0027,-0.0044,-0.0145,0
23632668,0.6450,-0.0048,-0.0138,0.7641,0.0230,-0.0088,-0.0300,0
23632835,0.6450,-0.0048,-0.0138,0.7641,0.0098,0.0071,-0.0213,0
23633001,0.6450,-0.0048,-0.0138,0.7641,0.0125,0.0006,-0.0298,0
23633168,0.6450,-0.0048,-0.0138,0.7641,-0.0011,0.0045,-0.0370,0
23633335,0.6450,-0.0048,-0.0138,0.7641,0.0079,0.0007,-0.0280,0
23633501,0.6450,-0.0048,-0.0138,0.7641,0.0081,-0.0010,-0.0356,0
23633668,0.6450,-0.0048,-0.0138,0.7641,-0.0118,-0.0093,-0.0332,0
23633835,0.6450,-0.0048,-0.0138,0.7641,-0.0079,0.0080,-0.0420,0
23634001,0.6450,-0.0048,-0.0138,0.7641,-0.0122,-0.0044,-0.0443,0
23634168,0.6450,-0.0048,-0.0138,0.7641,0.0014,-0.0022,-0.0391,0
23634335,0.6450,-0.0048,-0.0138,0.7641,0.0074,-0.0066,-0.0350,0
23634501,0.6450,-0.0048,-0.0138,0.7641,0.0167,-0.0093,-0.0621,0
23634668,0.6450,-0.0048,-0.0138,0.7641,0.0019,0.0100,-0.0168,0
23634835,0.6450,-0.0049,-0.0138,0.7641,-0.0036,-0.0048,-0.0107,0
23635001,0.6450,-0.0049,-0.0138,0.7641,0.0078,-0.0059,-0.0346,0
23635168,0.6450,-0.0048,-0.0138,0.7641,-0.0026,-0.0059,-0.0260,0
23635335,0.6450,-0.0048,-0.0138,0.7641,0.0051,0.0001,-0.0262,0
23635501,0.6450,-0.0048,-0.0138,0.7641,0.0042,-0.0238,-0.0347,0
23635668,0.6450,-0.0048,-0.0138,0.7641,0.0037,-0.0038,-0.0288,0
23635835,0.6450,-0.0048,-0.0138,0.7641,0.0051,0.0025,-0.0360,0
23636001,0.6450,-0.0048,-0.0138,0.7641,0.0118,-0.0038,-0.0303,0
23636168,0.6450,-0.0049,-0.0138,0.7641,0.0036,-0.0008,-0.0217,0
23636335,0.6450,-0.0048,-0.0138,0.7641,0.0026,-0.0038,-0.0335,0
23636501,0.6450,-0.0048,-0.0138,0.7641,0.0092,0.0008,-0.0309,0
23636668,0.6450,-0.0048,-0.0138,0.7641,0.0152,-0.0015,-0.0342,0
23636835,0.6449,-0.0048,-0.0138,0.7641,0.0102,-0.0061,-0.0155,0
23637001,0.6449,-0.0048,-0.0138,0.7641,0.0031,-0.0081,-0.0313,0
23637168,0.6449,-0.0048,-0.0138,0.7641,0.0059,-0.0036,-0.0384,0
23637335,0.6449,-0.0048,-0.0138,0.7641,0.0021,-0.0037,-0.0460,0
23637501,0.6449,-0.0048,-0.0138,0.7641,0.0065,-0.0048,-0.0564,0
23637668,0.6449,-0.0049,-0.0138,0.7641,-0.0022,0.0082,-0.0225,0
23637835,0.6450,-0.0049,-0.0138,0.7641,0.0187,0.0021,-0.0307,0
23638001,0.6450,-0.0049,-0.0138,0.7641,-0.0044,-0.0133,-0.0360,0
23638168,0.6449,-0.0049,-0.0138,0.7641,-0.0058,-0.0042,-0.0198,0
23638335,0.6449,-0.0048,-0.0138,0.7641,0.0072,0.0079,-0.0351,0
23638501,0.6449,-0.0048,-0.0138,0.7641,0.0078,-0.0061,-0.0142,0
23638668,0.6449,-0.0048,-0.0138,0.7641,-0.0081,-0.0074,-0.0471,0
23638835,0.6449,-0.0048,-0.0138,0.7641,0.0000,0.0030,-0.0300,0
23639001,0.6449,-0.0048,-0.0138,0.7641,0.0167,-0.0054,-0.0356,0
23639168,0.6449,-0.0048,-0.0138,0.7641,0.0072,0.0054,-0.0510,0
23639335,0.6449,-0.0048,-0.0138,0.7641,0.0080,0.0016,-0.0484,0
23639502,0.6449,-0.0048,-0.0138,0.7641,-0.0026,0.0036,-0.0345,0
23639668,0.6449,-0.0048,-0.0138,0.7641,0.0219,-0.0081,-0.0363,0
23639835,0.6449,-0.0048,-0.0138,0.7641,0.0113,-0.0129,-0.0331,0
23640002,0.6449,-0.0048,-0.0138,0.7641,0.0019,0.0001,-0.0355,0
23640168,0.6449,-0.0048,-0.0138,0.7641,-0.0066,0.0070,-0.0402,0
23640335,0.6449,-0.0048,-0.0138,0.7641,0.0032,0.0017,-0.0323,0
23640502,0.6449,-0.0048,-0.0138,0.7641,0.0176,-0.0048,-0.0481,0
23640668,0.6449,-0.0048,-0.0138,0.7641,-0.0013,0.0033,-0.0277,0
23640835,0.6449,-0.0048,-0.0137,0.7641,0.0059,0.0033,-0.0322,0
23641002,0.6449,-0.0048,-0.0137,0.7641,0.0103,-0.0123,-0.0227,0
23641168,0.6449,-0.0048,-0.0137,0.7641,0.0034,-0.0028,-0.0356,0
23641335,0.6449,-0.0048,-0.0137,0.7641,-0.0017,-0.0168,-0.0290,0
23641502,0.6449,-0.0048,-0.0137,0.7641,0.0023,-0.0107,-0.0468,0
23641668,0.6449,-0.0048,-0.0137,0.7641,0.0047,-0.0029,-0.0456,0
23641835,0.6449,-0.0048,-0.0137,0.7641,0.0020,-0.0143,-0.0395,0
23642002,0.6449,-0.0048,-0.0137,0.7641,0.0064,0.0069,-0.0327,0
23642168,0.6449,-0.0048,-0.0137,0.7641,0.0038,-0.0094,-0.0284,0
23642335,0.6449,-0.0048,-0.0137,0.7641,0.0201,-0.0025,-0.0461,0
23642502,0.6449,-0.0048,-0.0137,0.7641,-0.0047,-0.0030,-0.0463,0
23642668,0.6449,-0.0048,-0.0137,0.7641,0.0084,0.0078,-0.0451,0
23642835,0.6449,-0.0048,-0.0137,0.7641,0.0154,0.0020,-0.0158,0
23643002,0.6449,-0.0048,-0.0137,0.7641,-0.0001,-0.0009,-0.0241,0
23643168,0.6449,-0.0048,-0.0137,0.7641,0.0078,-0.0036,-0.0378,0
23643335,0.6449,-0.0048,-0.0137,0.7641,0.0007,-0.0120,-0.0319,0
23643502,0.6449,-0.0048,-0.0137,0.7641,0.0081,0.0101,-0.0441,0
23643668,0.6449,-0.0048,-0.0137,0.7641,0.0055,0.0023,-0.0239,0
23643835,0.6449,-0.0048,-0.0137,0.7641,0.0019,-0.0035,-0.0450,0
23644002,0.6449,-0.0048,-0.0137,0.7641,0.0093,-0.0168,-0.0250,0
23644168,0.6449,-0.0048,-0.0137,0.7641,0.0117,0.0099,-0.0414,0
23644335,0.6449,-0.0048,-0.0137,0.7641,0.0090,0.0005,-0.0149,0
23644502,0.6449,-0.0048,-0.0137,0.7641,-0.0001,0.0017,-0.0338,0
23644668,0.6449,-0.0048,-0.0137,0.7641,0.0099,0.0103,-0.0267,0
23644835,0.6449,-0.0048,-0.0137,0.7641,0.0104,0.0105,-0.0365,0
23645002,0.6449,-0.0048,-0.0137,0.7641,0.0198,0.0020,-0.0370,0
23645168,0.6449,-0.0048,-0.0137,0.7641,0.0034,-0.0002,-0.0324,0
23645335,0.6449,-0.0048,-0.0137,0.7641,0.0107,0.0070,-0.0472,0
23645502,0.6449,-0.0048,-0.0137,0.7641,0.0044,0.0030,-0.0162,0
23645668,0.6449,-0.0048,-0.0137,0.7641,0.0162,0.0098,-0.0428,0
23645835,0.6449,-0.0048,-0.0137,0.7641,0.0057,-0.0031,-0.0368,0
23646002,0.6449,-0.0048,-0.0137,0.7641,0.0065,0.0013,-0.0472,0
23646168,0.6449,-0.0048,-0.0137,0.7641,0.0121,0.0034,-0.0228,0
23646335,0.6449,-0.0048,-0.0137,0.7641,0.0137,0.0089,-0.0251,0
23646502,0.6449,-0.0048,-0.0137,0.7641,0.0099,-0.0093,-0.0127,0
23646668,0.6449,-0.0048,-0.0137,0.7641,0.0058,0.0048,-0.0397,0
23646835,0.6449,-0.0048,-0.0136,0.7641,0.0067,-0.0016,-0.0381,0
23647002,0.6449,-0.0048,-0.0136,0.7641,0.0047,-0.0047,-0.0118,0
23647168,0.6449,-0.0048,-0.0136,0.7641,0.0088,0.0063,-0.0330,0
23647335,0.6449,-0.0048,-0.0136,0.7641,0.0108,0.0134,-0.0283,0
23647502,0.6449,-0.0048,-0.0136,0.7641,0.0006,-0.0021,-0.0442,0
23647668,0.6449,-0.0048,-0.0138,0.7641,-0.0086,-0.0014,-0.0201,0
23647835,0.6449,-0.0048,-0.0138,0.7641,-0.0034,0.0077,-0.0493,0
23648002,0.6449,-0.0048,-0.0138,0.7641,0.0164,-0.0001,-0.0305,0
23648168,0.6449,-0.0048,-0.0138,0.7641,0.0160,-0.0011,-0.0368,0
23648335,0.6449,-0.0048,-0.0138,0.7641,0.0004,-0.0029,-0.0380,0
23648502,0.6449,-0.0048,-0.0138,0.7641,0.0147,-0.0038,-0.0551,0
23648668,0.6449,-0.0048,-0.0138,0.7641,0.0083,0.0037,-0.0436,0
23648835,0.6449,-0.0048,-0.0138,0.7641,0.0078,-0.0019,-0.0229,0
23649002,0.6449,-0.0048,-0.0138,0.7641,0.0043,0.0024,-0.0275,0
23649168,0.6449,-0.0048,-0.0138,0.7641,0.0117,-0.0057,-0.0562,0
23649335,0.6449,-0.0048,-0.0138,0.7641,0.0062,0.0091,-0.0329,0
23649502,0.6449,-0.0048,-0.0138,0.7642,0.0008,0.0010,-0.0570,0
23649668,0.6449,-0.0048,-0.0138,0.7642,0.0075,-0.0047,-0.0388,0
23649835,0.6449,-0.0048,-0.0138,0.7642,0.0059,-0.0041,-0.0353,0
23650002,0.6449,-0.0048,-0.0138,0.7642,0.0009,-0.0119,-0.0669,0
23650168,0.6449,-0.0048,-0.0137,0.7642,0.0086,0.0050,-0.0451,0
23650335,0.6449,-0.0048,-0.0137,0.7642,-0.0037,0.0039,-0.0489,0
23650502,0.6449,-0.0048,-0.0137,0.7642,-0.0025,0.0067,-0.0327,0
23650668,0.6449,-0.0048,-0.0137,0.7642,0.0002,0.0124,-0.0501,0
23650835,0.6449,-0.0048,-0.0137,0.7642,0.0076,-0.0010,-0.0353,0
23651002,0.6449,-0.0048,-0.0137,0.7642,0.0053,0.0031,-0.0388,0
23651168,0.6449,-0.0048,-0.0137,0.7642,0.0112,-0.0018,-0.0402,0
23651335,0.6449,-0.0048,-0.0137,0.7642,-0.0003,-0.0192,-0.0107,0
23651502,0.6449,-0.0048,-0.0137,0.7642,0.0052,-0.0145,-0.0331,0
23651668,0.6449,-0.0048,-0.0137,0.7642,0.0161,0.0025,-0.0152,0
23651835,0.6449,-0.0048,-0.0137,0.7642,0.0071,-0.0118,-0.0429,0
23652002,0.6449,-0.0048,-0.0137,0.7642,0.0130,-0.0056,-0.0358,0
23652168,0.6449,-0.0048,-0.0137,0.7642,0.0114,-0.0033,-0.0257,0
23652335,0.6449,-0.0048,-0.0137,0.7642,0.0035,0.0093,-0.0247,0
23652502,0.6449,-0.0048,-0.0137,0.7642,0.0111,-0.0020,-0.0438,0
23652668,0.6449,-0.0048,-0.0137,0.7642,0.0023,-0.0049,-0.0505,0
23652835,0.6449,-0.0048,-0.0137,0.7642,0.0096,-0.0025,-0.0403,0
23653002,0.6449,-0.0048,-0.0137,0.7642,-0.0120,0.0025,-0.0130,0
23653168,0.6449,-0.0048,-0.0137,0.7642,-0.0020,0.0169,-0.0371,0
23653335,0.6449,-0.0048,-0.0137,0.7642,0.0055,-0.0098,-0.0543,0
23653502,0.6449,-0.0048,-0.0137,0.7642,-0.0005,-0.0112,-0.0494,0
23653668,0.6448,-0.0048,-0.0137,0.7642,0.0136,-0.0066,-0.0308,0
23653835,0.6448,-0.0048,-0.0137,0.7642,0.0006,-0.0027,-0.0290,0
23654002,0.6448,-0.0048,-0.0137,0.7642,0.0125,-0.0118,-0.0259,0
23654168,0.6448,-0.0048,-0.0137,0.7642,-0.0060,-0.0059,-0.0351,0
23654335,0.6448,-0.0048,-0.0137,0.7642,0.0121,-0.0001,-0.0246,0
23654502,0.6449,-0.0048,-0.0137,0.7642,0.0093,-0.0032,-0.0492,0
23654668,0.6449,-0.0048,-0.0137,0.7642,0.0079,0.0004,-0.0288,0
23654835,0.6449,-0.0048,-0.0137,0.7642,0.0153,0.0070,-0.0414,0
23655002,0.6448,-0.0048,-0.0137,0.7642,0.0103,0.0039,-0.0232,0
23655168,0.6448,-0.0048,-0.0137,0.7642,0.0061,-0.0030,-0.0343,0
23655335,0.6449,-0.0048,-0.0137,0.7642,0.0052,0.0010,-0.0305,0
23655502,0.6449,-0.0048,-0.0137,0.7642,0.0096,-0.0015,-0.0429,0
23655668,0.6449,-0.0048,-0.0137,0.7642,0.0094,0.0136,-0.0371,0
23655835,0.6449,-0.0048,-0.0137,0.7642,0.0128,0.0069,-0.0490,0
23656002,0.6449,-0.0048,-0.0137,0.7642,0.0103,-0.0088,-0.0493,0
23656169,0.6448,-0.0048,-0.0137,0.7642,0.0103,-0.0025,-0.0465,0
23656335,0.6448,-0.0048,-0.0137,0.7642,0.0092,-0.0067,-0.0323,0
23656502,0.6448,-0.0048,-0.0137,0.7642,0.0131,-0.0043,-0.0219,0
23656669,0.6448,-0.0048,-0.0137,0.7642,0.0235,-0.0063,-0.0335,0
23656835,0.6448,-0.0048,-0.0137,0.7642,0.0139,-0.0039,-0.0258,0
23657002,0.6448,-0.0048,-0.0137,0.7642,0.0218,-0.0072,-0.0276,0
23657169,0.6449,-0.0048,-0.0137,0.7642,0.0179,-0.0062,-0.0272,0
23657335,0.6449,-0.0048,-0.0137,0.7642,0.0071,-0.0006,-0.0473,0
23657502,0.6449,-0.0048,-0.0137,0.7642,0.0056,-0.0000,-0.0390,0
23657669,0.6449,-0.0048,-0.0137,0.7642,0.0170,0.0065,-0.0361,0
23657835,0.6449,-0.0048,-0.0137,0.7642,0.0108,0.0070,-0.0363,0
23658002,0.6449,-0.0048,-0.0137,0.7642,0.0139,-0.0065,-0.0420,0
23658169,0.6449,-0.0048,-0.0137,0.7642,0.0008,-0.0064,-0.0504,0
23658335,0.6449,-0.0048,-0.0137,0.7642,-0.0038,0.0035,-0.0308,0
23658502,0.6449,-0.0048,-0.0137,0.7642,0.0114,-0.0088,-0.0366,0
23658669,0.6449,-0.0048,-0.0137,0.7642,0.0131,-0.0071,-0.0322,0
23658835,0.6449,-0.0048,-0.0137,0.7642,-0.0034,0.0024,-0.0333,0
23659002,0.6449,-0.0048,-0.0137,0.7642,-0.0032,-0.0015,-0.0281,0
23659169,0.6449,-0.0048,-0.0137,0.7642,0.0053,-0.0013,-0.0374,0
23659335,0.6449,-0.0048,-0.0137,0.7642,-0.0028,-0.0120,-0.0378,0
23659502,0.6449,-0.0048,-0.0137,0.7642,0.0187,0.0079,-0.0284,0
23659669,0.6449,-0.0048,-0.0137,0.7642,0.0017,0.0013,-0.0328,0
23659835,0.6449,-0.0048,-0.0137,0.7642,-0.0019,-0.0097,-0.0180,0
23660002,0.6448,-0.0048,-0.0137,0.7642,0.0063,0.0186,-0.0566,0
23660169,0.6449,-0.0048,-0.0137,0.7642,0.0006,0.0031,-0.0438,0
23660335,0.6449,-0.0048,-0.0137,0.7642,0.0104,0.0082,-0.0362,0
23660502,0.6449,-0.0048,-0.0137,0.7642,0.0055,0.0125,-0.0381,0
23660669,0.6448,-0.0048,-0.0137,0.7642,0.0106,0.0117,-0.0083,0
23660835,0.6448,-0.0048,-0.0137,0.7642,0.0093,0.0158,-0.0340,0
23661002,0.6448,-0.0048,-0.0136,0.7642,-0.0008,-0.0081,-0.0296,0
23661169,0.6449,-0.0048,-0.0136,0.7642,0.0098,0.0073,-0.0333,0
23661335,0.6448,-0.0048,-0.0136,0.7642,-0.0030,-0.0065,-0.0508,0
23661502,0.6448,-0.0048,-0.0136,0.7642,0.0200,-0.0046,-0.0446,0
23661669,0.6448,-0.0048,-0.0136,0.7642,0.0001,0.0092,-0.0270,0
23661835,0.6448,-0.0048,-0.0136,0.7642,0.0194,-0.0007,-0.0293,0
23662002,0.6448,-0.0048,-0.0136,0.7642,0.0193,-0.0180,-0.0405,0
23662169,0.6448,-0.0048,-0.0137,0.7642,-0.0051,-0.0067,-0.0362,0
23662335,0.6448,-0.0048,-0.0137,0.7642,-0.0015,-0.0071,-0.0291,0
23662502,0.6448,-0.0048,-0.0137,0.7642,0.0150,0.0007,-0.0283,0
23662669,0.6448,-0.0048,-0.0137,0.7642,0.0098,-0.0002,-0.0227,0
23662835,0.6448,-0.0048,-0.0137,0.7642,0.0096,-0.0057,-0.0129,0
23663002,0.6448,-0.0048,-0.0137,0.7642,0.0108,0.0026,-0.0441,0
23663169,0.6448,-0.0048,-0.0137,0.7642,0.0001,-0.0057,-0.0333,0
23663335,0.6448,-0.0048,-0.0137,0.7642,0.0067,-0.0057,0.0032,0
23663502,0.6449,-0.0048,-0.0137,0.7642,-0.0104,-0.0031,-0.0337,0
23663669,0.6449,-0.0048,-0.0137,0.7642,0.0099,0.0031,-0.0429,0
23663835,0.6449,-0.0048,-0.0137,0.7642,0.0099,-0.0044,-0.0408,0
23664002,0.6448,-0.0048,-0.0137,0.7642,0.0053,0.0124,-0.0467,0
23664169,0.6448,-0.0048,-0.0137,0.7642,0.0070,-0.0142,-0.0313,0
23664335,0.6449,-0.0048,-0.0137,0.7642,-0.0010,-0.0028,-0.0302,0
23664502,0.6449,-0.0048,-0.0137,0.7642,0.0142,0.0144,-0.0294,0
23664669,0.6449,-0.0048,-0.0137,0.7642,0.0024,-0.0076,-0.0292,0
23664835,0.6448,-0.0048,-0.0137,0.7642,0.0061,0.0071,-0.0439,0
23665002,0.6448,-0.0048,-0.0137,0.7642,-0.0022,-0.0097,-0.0289,0
23665169,0.6448,-0.0048,-0.0137,0.7642,0.0206,0.0068,-0.0378,0
23665335,0.6449,-0.0048,-0.0137,0.7642,-0.0001,-0.0011,-0.0299,0
23665502,0.6448,-0.0048,-0.0137,0.7642,0.0133,-0.0095,-0.0289,0
23665669,0.6448,-0.0048,-0.0137,0.7642,0.0222,-0.0005,-0.0341,0
23665835,0.6448,-0.0048,-0.0137,0.7642,0.0122,0.0018,-0.0409,0
23666002,0.6448,-0.0048,-0.0137,0.7642,0.0087,0.0089,-0.0402,0
23666169,0.6448,-0.0048,-0.0137,0.7642,-0.0014,-0.0002,-0.0359,0
23666335,0.6448,-0.0048,-0.0137,0.7642,0.0066,0.0013,-0.0422,0
23666502,0.6448,-0.0048,-0.0137,0.7642,0.0023,-0.0037,-0.0288,0
23666669,0.6448,-0.0048,-0.0137,0.7642,0.0128,0.0069,-0.0302,0
23666835,0.6448,-0.0048,-0.0137,0.7642,0.0086,-0.0026,-0.0490,0
23667002,0.6448,-0.0048,-0.0137,0.7642,0.0242,0.0050,-0.0368,0
23667169,0.6448,-0.0048,-0.0137,0.7642,0.0060,0.0038,-0.0324,0
23667335,0.6448,-0.0048,-0.0137,0.7642,0.0098,-0.0017,-0.0419,0
23667502,0.6448,-0.0048,-0.0137,0.7642,-0.0085,0.0055,-0.0229,0
23667669,0.6448,-0.0048,-0.0137,0.7642,0.0142,0.0105,-0.0370,0
23667835,0.6449,-0.0048,-0.0137,0.7642,0.0079,-0.0019,-0.0279,0
23668002,0.6449,-0.0048,-0.0137,0.7642,0.0042,0.0008,-0.0316,0
23668169,0.6449,-0.0049,-0.0137,0.7642,0.0013,0.0132,-0.0337,0
23668335,0.6449,-0.0049,-0.0137,0.7642,0.0110,0.0098,-0.0390,0
23668502,0.6449,-0.0048,-0.0137,0.7642,0.0027,-0.0043,-0.0398,0
23668669,0.6449,-0.0048,-0.0137,0.7642,0.0073,-0.0110,-0.0332,0
23668835,0.6449,-0.0049,-0.0137,0.7642,0.0051,-0.0080,-0.0311,0
23669002,0.6449,-0.0049,-0.0137,0.7642,-0.0003,0.0050,-0.0536,0
23669169,0.6449,-0.0048,-0.0137,0.7642,0.0078,-0.0056,-0.0162,0
23669335,0.6449,-0.0048,-0.0137,0.7642,0.0151,-0.0077,-0.0310,0
23669502,0.6449,-0.0048,-0.0137,0.7642,-0.0070,0.0039,-0.0163,0
23669669,0.6449,-0.0048,-0.0137,0.7642,0.0119,0.0102,-0.0385,0
23669835,0.6449,-0.0048,-0.0137,0.7642,-0.0036,-0.0042,-0.0320,0
23670002,0.6449,-0.0049,-0.0137,0.7641,0.0055,0.0008,-0.0378,0
23670169,0.6449,-0.0049,-0.0137,0.7641,0.0017,-0.0036,-0.0504,0
23670335,0.6449,-0.0049,-0.0137,0.7641,0.0164,-0.0080,-0.0268,0
23670502,0.6449,-0.0049,-0.0137,0.7641,0.0100,-0.0012,-0.0398,0
23670669,0.6449,-0.0049,-0.0137,0.7641,0.0036,-0.0121,-0.0139,0
23670835,0.6449,-0.0049,-0.0137,0.7642,0.0038,0.0068,-0.0171,0
23671002,0.6449,-0.0049,-0.0137,0.7642,-0.0029,-0.0012,-0.0392,0
23671169,0.6449,-0.0049,-0.0137,0.7642,0.0073,0.0064,-0.0430,0
23671335,0.6449,-0.0049,-0.0137,0.7642,0.0047,0.0059,-0.0290,0
23671502,0.6449,-0.0049,-0.0137,0.7641,-0.0019,-0.0059,-0.0429,0
23671669,0.6449,-0.0049,-0.0137,0.7641,-0.0048,0.0184,-0.0300,0
23671835,0.6449,-0.0049,-0.0137,0.7642,0.0106,-0.0120,-0.0465,0
23672002,0.6449,-0.0049,-0.0137,0.7642,0.0023,-0.0027,-0.0241,0
23672169,0.6449,-0.0049,-0.0137,0.7642,0.0178,0.0069,-0.0399,0
23672335,0.6449,-0.0049,-0.0137,0.7642,0.0016,0.0092,-0.0371,0
23672502,0.6449,-0.0049,-0.0137,0.7642,0.0172,-0.0033,-0.0413,0
23672669,0.6449,-0.0048,-0.0137,0.7642,-0.0005,0.0027,-0.0222,0
23672836,0.6449,-0.0049,-0.0137,0.7642,-0.0013,0.0092,-0.0277,0
23673002,0.6449,-0.0049,-0.0137,0.7642,0.0137,-0.0012,-0.0446,0
23673169,0.6449,-0.0049,-0.0137,0.7642,0.0118,0.0022,-0.0165,0
23673336,0.6449,-0.0049,-0.0137,0.7642,0.0024,-0.0013,-0.0192,0
23673502,0.6449,-0.0049,-0.0137,0.7642,0.0071,0.0060,-0.0353,0
23673669,0.6449,-0.0049,-0.0137,0.7642,0.0140,0.0057,-0.0408,0
23673836,0.6449,-0.0049,-0.0137,0.7642,0.0136,0.0053,-0.0325,0
23674002,0.6449,-0.0049,-0.0137,0.7642,0.0114,0.0046,-0.0563,0
23674169,0.6449,-0.0049,-0.0137,0.7642,-0.0027,-0.0006,0.0043,0
23674336,0.6449,-0.0049,-0.0137,0.7642,-0.0047,0.0117,-0.0190,0
23674502,0.6449,-0.0049,-0.0137,0.7641,0.0029,0.0010,-0.0447,0
23674669,0.6449,-0.0049,-0.0137,0.7641,0.0015,0.0091,-0.0620,0
23674836,0.6449,-0.0049,-0.0137,0.7641,0.0033,0.0078,-0.0317,0
23675002,0.6449,-0.0049,-0.0137,0.7641,0.0020,0.0075,-0.0261,0
23675169,0.6449,-0.0049,-0.0137,0.7641,0.0058,0.0142,-0.0436,0
23675336,0.6449,-0.0049,-0.0137,0.7641,0.0031,-0.0017,-0.0276,0
23675502,0.6449,-0.0049,-0.0137,0.7641,-0.0045,-0.0029,-0.0351,0
23675669,0.6449,-0.0049,-0.0137,0.7641,-0.0009,0.0015,-0.0332,0
23675836,0.6449,-0.0049,-0.0137,0.7641,0.0184,0.0117,-0.0451,0
23676002,0.6449,-0.0049,-0.0137,0.7641,0.0060,0.0095,-0.0170,0
23676169,0.6449,-0.0049,-0.0137,0.7641,0.0049,0.0065,-0.0606,0
23676336,0.6449,-0.0049,-0.0137,0.7641,-0.0051,0.0018,-0.0221,0
23676502,0.6449,-0.0049,-0.0137,0.7641,0.0205,-0.0090,-0.0383,0
23676669,0.6449,-0.0049,-0.0137,0.7641,0.0043,0.0021,-0.0484,0
23676836,0.6449,-0.0049,-0.0137,0.7641,-0.0024,0.0029,-0.0399,0
23677002,0.6449,-0.0049,-0.0137,0.7641,0.0147,0.0051,-0.0267,0
23677169,0.6449,-0.0049,-0.0137,0.7641,0.0069,-0.0080,-0.0233,0
23677336,0.6449,-0.0049,-0.0137,0.7641,0.0069,0.0006,-0.0420,0
23677502,0.6449,-0.0049,-0.0137,0.7641,0.0098,0.0061,-0.0501,0
23677669,0.6449,-0.0049,-0.0137,0.7641,0.0207,-0.0023,-0.0426,0
23677836,0.6449,-0.0049,-0.0137,0.7641,0.0017,0.0020,-0.0221,0
23678002,0.6449,-0.0049,-0.0137,0.7641,-0.0034,0.0051,-0.0355,0
23678169,0.6449,-0.0049,-0.0137,0.7641,0.0093,-0.0075,-0.0340,0
23678336,0.6449,-0.0049,-0.0137,0.7641,0.0034,0.0052,-0.0408,0
23678502,0.6449,-0.0049,-0.0137,0.7641,0.0080,0.0090,-0.0374,0
23678669,0.6449,-0.0049,-0.0137,0.7641,-0.0000,-0.0076,-0.0364,0
23678836,0.6449,-0.0049,-0.0137,0.7641,0.0027,-0.0046,-0.0359,0
23679002,0.6449,-0.0049,-0.0137,0.7641,0.0080,0.0033,-0.0411,0
23679169,0.6449,-0.0049,-0.0137,0.7641,0.0126,-0.0068,-0.0587,0
23679336,0.6449,-0.0049,-0.0137,0.7641,0.0128,-0.0092,-0.0460,0
23679502,0.6449,-0.0049,-0.0137,0.7641,-0.0001,-0.0006,-0.0271,0
23679669,0.6449,-0.0049,-0.0137,0.7641,0.0108,-0.0092,-0.0320,0
23679836,0.6449,-0.0049,-0.0137,0.7641,0.0159,-0.0051,-0.0340,0
23680002,0.6449,-0.0049,-0.0137,0.7641,0.0051,-0.0102,-0.0255,0
23680169,0.6449,-0.0049,-0.0137,0.7641,-0.0008,-0.0029,-0.0266,0
23680336,0.6449,-0.0049,-0.0137,0.7641,-0.0047,-0.0004,-0.0275,0
23680502,0.6449,-0.0049,-0.0137,0.7641,0.0029,0.0190,-0.0110,0
23680669,0.6449,-0.0049,-0.0137,0.7641,0.0065,-0.0107,-0.0369,0
23680836,0.6449,-0.0049,-0.0137,0.7641,0.0198,-0.0036,-0.0147,0
23681002,0.6449,-0.0049,-0.0137,0.7641,-0.0023,0.0031,-0.0277,0
23681169,0.6449,-0.0049,-0.0137,0.7641,0.0061,-0.0032,-0.0301,0
23681336,0.6449,-0.0049,-0.0137,0.7641,0.0054,0.0048,-0.0564,0
23681502,0.6449,-0.0049,-0.0137,0.7641,0.0156,0.0131,-0.0251,0
23681669,0.6449,-0.0049,-0.0137,0.7641,0.0056,0.0032,-0.0344,0
23681836,0.6449,-0.0049,-0.0137,0.7642,0.0152,0.0019,-0.0104,0
23682002,0.6449,-0.0049,-0.0137,0.7642,0.0013,0.0052,-0.0285,0
23682169,0.6449,-0.0049,-0.0137,0.7642,0.0029,0.0045,-0.0302,0
23682336,0.6449,-0.0049,-0.0137,0.7642,0.0020,0.0073,-0.0314,0
23682502,0.6449,-0.0049,-0.0137,0.7642,-0.0004,-0.0030,-0.0295,0
23682669,0.6449,-0.0049,-0.0137,0.7642,0.0090,-0.0030,-0.0335,0
23682836,0.6448,-0.0049,-0.0137,0.7642,0.0052,0.0024,-0.0400,0
23683002,0.6448,-0.0049,-0.0137,0.7642,0.0068,0.0063,-0.0224,0
23683169,0.6448,-0.0049,-0.0137,0.7642,-0.0006,0.0147,-0.0297,0
23683336,0.6448,-0.0049,-0.0137,0.7642,0.0143,0.0083,-0.0398,0
23683502,0.6448,-0.0049,-0.0137,0.7642,0.0077,0.0033,-0.0269,0
23683669,0.6448,-0.0049,-0.0137,0.7642,-0.0093,0.0022,-0.0649,0
23683836,0.6448,-0.0049,-0.0137,0.7642,-0.0072,0.0001,-0.0339,0
23684002,0.6448,-0.0049,-0.0137,0.7642,0.0047,0.0027,-0.0165,0
23684169,0.6448,-0.0049,-0.0136,0.7642,0.0128,0.0001,-0.0393,0
23684336,0.6448,-0.0049,-0.0136,0.7642,0.0051,-0.0089,-0.0374,0
23684502,0.6448,-0.0049,-0.0136,0.7642,0.0007,-0.0015,-0.0374,0
23684669,0.6448,-0.0049,-0.0136,0.7642,0.0119,0.0029,-0.0315,0
23684836,0.6448,-0.0049,-0.0136,0.7642,0.0108,-0.0008,-0.0264,0
23685002,0.6448,-0.0049,-0.0136,0.7642,0.0088,0.0084,-0.0345,0
23685169,0.6448,-0.0049,-0.0137,0.7642,0.0090,-0.0134,-0.0278,0
23685336,0.6448,-0.0049,-0.0136,0.7642,0.0088,0.0085,-0.0295,0
23685502,0.6448,-0.0049,-0.0136,0.7642,0.0004,0.0014,-0.0204,0
23685669,0.6448,-0.0049,-0.0136,0.7642,-0.0021,0.0129,-0.0303,0
23685836,0.6448,-0.0049,-0.0136,0.7642,0.0046,0.0029,-0.0354,0
23686002,0.6448,-0.0049,-0.0136,0.7642,0.0079,0.0072,-0.0622,0
23686169,0.6448,-0.0049,-0.0136,0.7642,-0.0025,0.0075,-0.0320,0
23686336,0.6448,-0.0049,-0.0136,0.7642,-0.0061,-0.0044,-0.0346,0
23686502,0.6448,-0.0049,-0.0136,0.7642,-0.0047,0.0054,-0.0334,0
23686669,0.6448,-0.0049,-0.0136,0.7642,0.0064,0.0086,-0.0312,0
23686836,0.6448,-0.0049,-0.0136,0.7642,0.0064,0.0014,-0.0486,0
23687002,0.6448,-0.0049,-0.0136,0.7642,0.0002,0.0029,-0.0281,0
23687169,0.6448,-0.0049,-0.0136,0.7642,-0.0049,-0.0037,-0.0344,0
23687336,0.6448,-0.0049,-0.0136,0.7642,0.0119,0.0138,-0.0344,0
23687502,0.6448,-0.0049,-0.0136,0.7642,0.0161,-0.0036,-0.0053,0
23687669,0.6448,-0.0049,-0.0137,0.7642,0.0111,0.0030,-0.0290,0
23687836,0.6448,-0.0048,-0.0137,0.7642,0.0093,-0.0200,-0.0479,0
23688002,0.6448,-0.0048,-0.0137,0.7642,0.0055,0.0046,-0.0485,0
23688169,0.6448,-0.0048,-0.0137,0.7642,0.0021,-0.0040,-0.0341,0
23688336,0.6448,-0.0048,-0.0137,0.7642,0.0012,0.0018,-0.0368,0
23688502,0.6448,-0.0049,-0.0137,0.7642,0.0130,-0.0008,-0.0257,0
23688669,0.6448,-0.0049,-0.0137,0.7642,0.0016,-0.0090,-0.0567,0
23688836,0.6448,-0.0049,-0.0137,0.7642,0.0034,0.0084,-0.0276,0
23689002,0.6448,-0.0049,-0.0137,0.7642,0.0031,-0.0028,-0.0096,0
23689169,0.6448,-0.0049,-0.0137,0.7642,0.0102,0.0069,-0.0329,0
23689336,0.6448,-0.0049,-0.0137,0.7642,-0.0034,0.0157,-0.0282,0
23689503,0.6448,-0.0048,-0.0137,0.7642,-0.0085,-0.0081,-0.0218,0
23689669,0.6448,-0.0048,-0.0137,0.7642,0.0067,-0.0045,-0.0394,0
23689836,0.6448,-0.0048,-0.0137,0.7642,0.0087,0.0043,-0.0505,0
23690003,0.6448,-0.0048,-0.0137,0.7642,0.0170,0.0050,-0.0444,0
23690169,0.6448,-0.0048,-0.0137,0.7642,0.0107,-0.0002,-0.0487,0
23690336,0.6448,-0.0048,-0.0137,0.7642,0.0072,0.0111,-0.0383,0
23690503,0.6448,-0.0048,-0.0137,0.7642,0.0043,0.0052,-0.0303,0
23690669,0.6448,-0.0048,-0.0137,0.7642,0.0120,-0.0040,-0.0393,0
23690836,0.6448,-0.0048,-0.0137,0.7642,-0.0000,-0.0183,-0.0322,0
23691003,0.6448,-0.0048,-0.0137,0.7642,0.0126,0.0118,-0.0521,0
23691169,0.6448,-0.0048,-0.0137,0.7642,0.0212,0.0004,-0.0415,0
23691336,0.6448,-0.0048,-0.0137,0.7642,0.0092,0.0112,-0.0241,0
23691503,0.6448,-0.0048,-0.0137,0.7642,-0.0033,0.0101,-0.0217,0
23691669,0.6448,-0.0048,-0.0137,0.7642,0.0064,0.0068,0.0040,0
23691836,0.6448,-0.0048,-0.0137,0.7642,-0.0031,0.0105,0.0060,0
23692003,0.6448,-0.0048,-0.0137,0.7642,-0.0005,0.0166,-0.0295,0
23692169,0.6448,-0.0048,-0.0137,0.7642,-0.0023,-0.0075,-0.0172,0
23692336,0.6448,-0.0048,-0.0137,0.7642,0.0004,-0.0119,-0.0473,0
23692503,0.6448,-0.0048,-0.0137,0.7642,-0.0091,-0.0061,-0.0368,0
23692669,0.6448,-0.0048,-0.0137,0.7642,0.0043,0.0046,-0.0399,0
23692836,0.6448,-0.0048,-0.0137,0.7642,0.0040,-0.0035,-0.0392,0
23693003,0.6448,-0.0048,-0.0137,0.7642,0.0211,0.0065,-0.0487,0
23693169,0.6448,-0.0048,-0.0137,0.7642,0.0050,0.0069,-0.0282,0
23693336,0.6448,-0.0048,-0.0137,0.7642,-0.0014,-0.0007,-0.0289,0
23693503,0.6448,-0.0048,-0.0137,0.7642,0.0148,0.0033,-0.0239,0
23693669,0.6448,-0.0049,-0.0137,0.7642,0.0045,-0.0029,-0.0307,0
23693836,0.6448,-0.0049,-0.0137,0.7642,0.0003,0.0052,-0.0305,0
23694003,0.6448,-0.0048,-0.0137,0.7642,-0.0085,0.0052,-0.0429,0
23694169,0.6448,-0.0048,-0.0137,0.7642,-0.0021,-0.0087,-0.0326,0
23694336,0.6448,-0.0048,-0.0137,0.7642,0.0091,-0.0031,-0.0118,0
23694503,0.6448,-0.0048,-0.0137,0.7642,0.0104,-0.0037,-0.0110,0
23694669,0.6448,-0.0048,-0.0137,0.7642,0.0241,-0.0057,-0.0393,0
23694836,0.6448,-0.0049,-0.0137,0.7642,0.0221,0.0023,-0.0570,0
23695003,0.6448,-0.0049,-0.0137,0.7642,0.0072,-0.0035,-0.0385,0
23695169,0.6448,-0.0049,-0.0137,0.7642,0.0018,-0.0019,-0.0269,0
23695336,0.6448,-0.0049,-0.0136,0.7642,-0.0009,-0.0052,-0.0038,0
23695503,0.6448,-0.0049,-0.0136,0.7642,-0.0127,-0.0005,-0.0302,0
23695669,0.6448,-0.0049,-0.0136,0.7642,-0.0059,0.0068,-0.0313,0
23695836,0.6448,-0.0049,-0.0136,0.7642,-0.0025,-0.0051,-0.0170,0
23696003,0.6448,-0.0049,-0.0136,0.7642,0.0070,0.0023,-0.0391,0
23696169,0.6448,-0.0049,-0.0136,0.7642,0.0118,0.0108,-0.0214,0
23696336,0.6448,-0.0049,-0.0136,0.7642,0.0233,-0.0009,-0.0511,0
23696503,0.6448,-0.0049,-0.0137,0.7642,-0.0001,-0.0012,-0.0277,0
23696669,0.6448,-0.0049,-0.0136,0.7642,-0.0004,0.0113,-0.0361,0
23696836,0.6448,-0.0049,-0.0137,0.7642,0.0017,0.0012,-0.0411,0
23697003,0.6448,-0.0049,-0.0137,0.7642,0.0085,0.0056,-0.0060,0
23697169,0.6448,-0.0049,-0.0137,0.7642,0.0050,-0.0037,-0.0233,0
23697336,0.6448,-0.0049,-0.0137,0.7642,-0.0055,0.0020,-0.0542,0
23697503,0.6448,-0.0049,-0.0137,0.7642,-0.0072,-0.0144,-0.0318,0
23697669,0.6448,-0.0049,-0.0137,0.7642,0.0045,0.0075,-0.0180,0
23697836,0.6448,-0.0049,-0.0137,0.7642,0.0043,0.0019,-0.0341,0
23698003,0.6448,-0.0049,-0.0137,0.7642,-0.0040,-0.0016,-0.0301,0
23698169,0.6448,-0.0049,-0.0137,0.7642,0.0040,0.0117,-0.0293,0
23698336,0.6448,-0.0049,-0.0137,0.7642,0.0045,-0.0130,-0.0385,0
23698503,0.6448,-0.0049,-0.0137,0.7642,0.0094,-0.0003,-0.0355,0
23698669,0.6448,-0.0049,-0.0137,0.7642,0.0054,0.0118,-0.0390,0
23698836,0.6448,-0.0049,-0.0136,0.7642,0.0090,0.0069,-0.0575,0
23699003,0.6448,-0.0049,-0.0136,0.7642,0.0019,0.0001,-0.0361,0
23699169,0.6448,-0.0049,-0.0136,0.7642,0.0102,0.0029,-0.0400,0
23699336,0.6448,-0.0049,-0.0136,0.7642,0.0050,0.0082,-0.0250,0
23699503,0.6448,-0.0049,-0.0136,0.7642,-0.0010,0.0014,-0.0365,0
23699669,0.6448,-0.0050,-0.0136,0.7642,-0.0025,0.0102,-0.0323,0
23699836,0.6448,-0.0050,-0.0136,0.7642,0.0113,0.0027,-0.0270,0
23700003,0.6448,-0.0050,-0.0136,0.7642,0.0076,-0.0011,-0.0295,0
23700169,0.6448,-0.0050,-0.0136,0.7642,0.0091,-0.0010,-0.0436,0
23700336,0.6448,-0.0049,-0.0136,0.7642,0.0049,-0.0153,-0.0316,0
23700503,0.6448,-0.0050,-0.0136,0.7642,0.0066,0.0101,-0.0429,0
23700669,0.6448,-0.0050,-0.0136,0.7642,-0.0007,0.0036,-0.0426,0
23700836,0.6448,-0.0050,-0.0136,0.7642,-0.0061,0.0050,-0.0298,0
23701003,0.6448,-0.0049,-0.0136,0.7642,0.0115,0.0087,-0.0398,0
23701169,0.6448,-0.0050,-0.0136,0.7642,-0.0030,0.0010,-0.0364,0
23701336,0.6448,-0.0049,-0.0136,0.7642,-0.0009,-0.0038,-0.0411,0
23701503,0.6448,-0.0049,-0.0136,0.7642,-0.0118,-0.0051,-0.0366,0
23701669,0.6448,-0.0049,-0.0136,0.7642,0.0108,0.0100,-0.0379,0
23701836,0.6448,-0.0049,-0.0136,0.7642,0.0089,0.0031,-0.0422,0
23702003,0.6448,-0.0049,-0.0136,0.7642,0.0105,0.0055,-0.0458,0
23702169,0.6448,-0.0050,-0.0136,0.7642,0.0041,0.0112,-0.0493,0
23702336,0.6448,-0.0050,-0.0136,0.7642,-0.0012,0.0051,-0.0541,0
23702503,0.6448,-0.0050,-0.0136,0.7642,-0.0018,0.0003,-0.0254,0
23702669,0.6448,-0.0050,-0.0136,0.7642,0.0028,-0.0019,-0.0245,0
23702836,0.6448,-0.0050,-0.0136,0.7642,-0.0001,0.0007,-0.0349,0
23703003,0.6448,-0.0050,-0.0136,0.7642,0.0098,-0.0050,-0.0289,0
23703169,0.6448,-0.0050,-0.0136,0.7642,0.0015,0.0026,-0.0207,0
23703336,0.6448,-0.0050,-0.0136,0.7642,0.0081,-0.0013,-0.0565,0
23703503,0.6448,-0.0050,-0.0136,0.7642,0.0146,-0.0064,-0.0384,0
23703669,0.6448,-0.0050,-0.0136,0.7642,-0.0019,-0.0013,-0.0217,0
23703836,0.6448,-0.0050,-0.0136,0.7642,0.0163,0.0055,-0.0221,0
23704003,0.6448,-0.0050,-0.0136,0.7642,0.0101,0.0030,-0.0548,0
23704169,0.6448,-0.0050,-0.0136,0.7642,0.0009,0.0081,-0.0155,0
23704336,0.6448,-0.0050,-0.0136,0.7642,0.0098,-0.0086,-0.0315,0
23704503,0.6448,-0.0050,-0.0136,0.7642,0.0112,0.0004,-0.0554,0
23704669,0.6448,-0.0050,-0.0136,0.7642,-0.0027,0.0014,-0.0438,0
23704836,0.6448,-0.0050,-0.0136,0.7642,0.0079,0.0002,-0.0327,0
23705003,0.6448,-0.0050,-0.0136,0.7642,0.0117,0.0129,-0.0307,0
23705169,0.6448,-0.0050,-0.0136,0.7642,0.0096,0.0046,-0.0269,0
23705336,0.6448,-0.0050,-0.0136,0.7642,-0.0067,0.0061,-0.0435,0
23705503,0.6448,-0.0050,-0.0136,0.7642,-0.0040,0.0053,-0.0329,0
23705669,0.6448,-0.0050,-0.0136,0.7642,0.0152,-0.0007,-0.0313,0
23705836,0.6448,-0.0050,-0.0136,0.7642,0.0019,-0.0036,-0.0509,0
23706003,0.6448,-0.0050,-0.0136,0.7642,0.0060,0.0087,-0.0372,0
23706170,0.6448,-0.0050,-0.0136,0.7642,0.0215,-0.0068,-0.0364,0
23706336,0.6448,-0.0050,-0.0136,0.7642,0.0009,0.0136,-0.0451,0
23706503,0.6448,-0.0050,-0.0136,0.7642,-0.0031,0.0050,-0.0231,0
23706670,0.6448,-0.0050,-0.0136,0.7642,0.0103,0.0064,-0.0276,0
23706836,0.6448,-0.0050,-0.0136,0.7642,0.0067,-0.0028,-0.0464,0
23707003,0.6448,-0.0050,-0.0136,0.7642,0.0055,-0.0028,-0.0404,0
23707170,0.6448,-0.0050,-0.0136,0.7642,0.0035,0.0135,-0.0142,0
23707336,0.6448,-0.0050,-0.0136,0.7642,0.0061,0.0103,-0.0269,0
23707503,0.6448,-0.0050,-0.0136,0.7642,-0.0038,0.0137,-0.0369,0
23707670,0.6448,-0.0049,-0.0136,0.7642,-0.0075,0.0062,-0.0391,0
23707836,0.6448,-0.0049,-0.0136,0.7642,0.0159,0.0209,-0.0508,0
23708003,0.6448,-0.0049,-0.0136,0.7642,0.0021,0.0052,-0.0122,0
23708170,0.6448,-0.0049,-0.0136,0.7642,0.0022,-0.0008,-0.0414,0
23708336,0.6448,-0.0049,-0.0136,0.7642,0.0103,0.0093,-0.0128,0
23708503,0.6448,-0.0049,-0.0136,0.7642,0.0101,0.0160,-0.0181,0
23708670,0.6448,-0.0049,-0.0136,0.7642,0.0024,-0.0033,-0.0240,0
23708836,0.6448,-0.0050,-0.0136,0.7642,0.0030,0.0044,-0.0331,0
23709003,0.6448,-0.0050,-0.0136,0.7642,0.0061,0.0204,-0.0371,0
23709170,0.6448,-0.0050,-0.0136,0.7642,-0.0027,0.0022,-0.0015,0
23709336,0.6448,-0.0050,-0.0136,0.7642,0.0062,-0.0057,-0.0317,0
23709503,0.6448,-0.0050,-0.0136,0.7642,0.0070,-0.0073,-0.0435,0
23709670,0.6448,-0.0050,-0.0136,0.7642,0.0089,0.0184,-0.0281,0
23709836,0.6448,-0.0050,-0.0136,0.7642,0.0020,0.0127,-0.0460,0
23710003,0.6448,-0.0050,-0.0136,0.7642,0.0071,-0.0002,-0.0722,0
23710170,0.6448,-0.0050,-0.0136,0.7642,0.0120,0.0138,-0.0483,0
23710336,0.6448,-0.0050,-0.0136,0.7642,-0.0062,0.0012,-0.0244,0
23710503,0.6448,-0.0050,-0.0136,0.7642,0.0074,0.0020,-0.0242,0
23710670,0.6448,-0.0050,-0.0136,0.7642,0.0133,0.0030,-0.0410,0
23710836,0.6448,-0.0050,-0.0136,0.7643,0.0080,0.0125,-0.0452,0
23711003,0.6448,-0.0050,-0.0136,0.7643,-0.0006,0.0112,-0.0239,0
23711170,0.6447,-0.0050,-0.0136,0.7643,0.0128,0.0028,-0.0326,0
23711336,0.6448,-0.0050,-0.0136,0.7643,-0.0058,-0.0001,-0.0415,0
23711503,0.6448,-0.0050,-0.0136,0.7643,-0.0024,0.0130,-0.0563,0
23711670,0.6448,-0.0050,-0.0136,0.7643,0.0039,0.0141,-0.0504,0
23711836,0.6448,-0.0050,-0.0136,0.7643,0.0063,0.0106,-0.0250,0
23712003,0.6448,-0.0050,-0.0136,0.7643,-0.0004,0.0024,-0.0336,0
23712170,0.6448,-0.0050,-0.0136,0.7643,0.0029,-0.0104,-0.0138,0
23712336,0.6448,-0.0050,-0.0136,0.7642,0.0031,0.0110,-0.0256,0
23712503,0.6448,-0.0050,-0.0136,0.7642,-0.0122,0.0059,-0.0170,0
23712670,0.6448,-0.0050,-0.0136,0.7642,0.0058,0.0041,-0.0310,0
23712836,0.6448,-0.0050,-0.0136,0.7643,0.0063,0.0111,-0.0138,0
23713003,0.6447,-0.0050,-0.0136,0.7643,0.0014,0.0075,-0.0263,0
23713170,0.6448,-0.0050,-0.0136,0.7643,0.0047,0.0073,-0.0373,0
23713336,0.6448,-0.0050,-0.0136,0.7643,-0.0016,0.0139,-0.0427,0
23713503,0.6447,-0.0050,-0.0136,0.7643,0.0072,-0.0024,-0.0321,0
23713670,0.6447,-0.0050,-0.0136,0.7643,0.0103,-0.0002,-0.0280,0
23713836,0.6447,-0.0051,-0.0136,0.7643,-0.0038,0.0115,-0.0223,0
23714003,0.6447,-0.0051,-0.0136,0.7643,-0.0094,-0.0079,-0.0536,0
23714170,0.6448,-0.0051,-0.0136,0.7643,-0.0086,0.0162,-0.0388,0
23714336,0.6448,-0.0051,-0.0136,0.7643,0.0018,0.0027,-0.0385,0
23714503,0.6447,-0.0051,-0.0136,0.7643,0.0051,-0.0049,-0.0492,0
23714670,0.6447,-0.0051,-0.0136,0.7643,-0.0056,0.0054,-0.0084,0
23714836,0.6448,-0.0051,-0.0136,0.7643,-0.0100,-0.0003,-0.0333,0
23715003,0.6447,-0.0050,-0.0136,0.7643,-0.0070,-0.0015,-0.0547,0
23715170,0.6448,-0.0050,-0.0136,0.7643,0.0062,0.0050,-0.0113,0
23715336,0.6448,-0.0051,-0.0136,0.7642,0.0003,-0.0016,-0.0262,0
23715503,0.6448,-0.0051,-0.0136,0.7642,0.0171,-0.0052,-0.0241,0
23715670,0.6448,-0.0051,-0.0136,0.7643,-0.0024,0.0078,-0.0298,0
23715836,0.6448,-0.0051,-0.0136,0.7643,0.0117,-0.0024,-0.0523,0
23716003,0.6447,-0.0051,-0.0136,0.7643,0.0044,-0.0012,-0.0297,0
23716170,0.6448,-0.0051,-0.0136,0.7643,0.0169,0.0064,-0.0135,0
23716336,0.6448,-0.0051,-0.0136,0.7643,0.0069,0.0003,-0.0393,0
23716503,0.6448,-0.0051,-0.0136,0.7642,0.0174,0.0003,-0.0411,0
23716670,0.6448,-0.0051,-0.0136,0.7642,0.0100,-0.0065,-0.0335,0
23716836,0.6448,-0.0051,-0.0136,0.7642,0.0120,0.0101,-0.0482,0
23717003,0.6448,-0.0051,-0.0136,0.7642,0.0037,0.0066,-0.0120,0
23717170,0.6448,-0.0051,-0.0136,0.7642,-0.0005,0.0065,-0.0259,0
23717336,0.6448,-0.0051,-0.0136,0.7642,-0.0034,0.0116,-0.0405,0
23717503,0.6448,-0.0051,-0.0136,0.7642,0.0106,0.0115,-0.0473,0
23717670,0.6448,-0.0051,-0.0136,0.7642,0.0038,0.0057,-0.0166,0
23717836,0.6448,-0.0051,-0.0136,0.7642,-0.0082,0.0059,-0.0558,0
23718003,0.6448,-0.0051,-0.0136,0.7642,-0.0011,0.0067,-0.0301,0
23718170,0.6448,-0.0051,-0.0136,0.7642,-0.0122,-0.0035,-0.0398,0
23718336,0.6448,-0.0051,-0.0136,0.7642,0.0022,-0.0035,-0.0497,0
23718503,0.6448,-0.0051,-0.0136,0.7642,-0.0110,0.0109,-0.0367,0
23718670,0.6448,-0.0051,-0.0136,0.7642,-0.0075,0.0077,-0.0370,0
23718836,0.6448,-0.0050,-0.0136,0.7642,0.0042,0.0033,-0.0263,0
23719003,0.6448,-0.0050,-0.0136,0.7642,0.0052,0.0038,-0.0465,0
23719170,0.6448,-0.0050,-0.0136,0.7642,-0.0036,0.0131,-0.0127,0
23719336,0.6448,-0.0050,-0.0136,0.7642,-0.0030,0.0103,-0.0185,0
23719503,0.6448,-0.0050,-0.0136,0.7642,0.0035,0.0068,-0.0366,0
23719670,0.6448,-0.0050,-0.0136,0.7642,0.0027,-0.0117,-0.0249,0
23719836,0.6448,-0.0050,-0.0136,0.7642,-0.0002,-0.0068,-0.0392,0
23720003,0.6448,-0.0050,-0.0136,0.7642,-0.0022,0.0012,-0.0518,0
23720170,0.6448,-0.0050,-0.0136,0.7642,-0.0007,0.0037,-0.0305,0
23720336,0.6448,-0.0050,-0.0136,0.7642,0.0043,-0.0032,-0.0302,0
23720503,0.6448,-0.0050,-0.0136,0.7642,0.0156,-0.0152,-0.0169,0
23720670,0.6448,-0.0050,-0.0136,0.7642,0.0155,0.0157,-0.0468,0
23720836,0.6448,-0.0050,-0.0136,0.7642,0.0087,0.0086,-0.0308,0
23721003,0.6448,-0.0050,-0.0136,0.7642,-0.0014,0.0066,-0.0384,0
23721170,0.6448,-0.0050,-0.0136,0.7642,-0.0049,0.0140,-0.0107,0
23721336,0.6448,-0.0050,-0.0136,0.7642,-0.0015,0.0003,-0.0562,0
23721503,0.6448,-0.0050,-0.0136,0.7642,-0.0055,-0.0026,-0.0130,0
23721670,0.6448,-0.0050,-0.0136,0.7642,-0.0035,0.0133,-0.0496,0
23721836,0.6448,-0.0050,-0.0136,0.7643,0.0021,0.0129,-0.0323,0
23722003,0.6448,-0.0050,-0.0136,0.7643,-0.0047,-0.0049,-0.0381,0
23722170,0.6448,-0.0050,-0.0136,0.7643,-0.0015,0.0061,-0.0398,0
23722336,0.6448,-0.0050,-0.0136,0.7642,-0.0058,0.0110,-0.0472,0
23722503,0.6448,-0.0050,-0.0137,0.7643,0.0015,-0.0044,-0.0352,0
23722670,0.6448,-0.0050,-0.0136,0.7643,0.0033,-0.0035,-0.0251,0
23722837,0.6447,-0.0050,-0.0136,0.7643,-0.0024,0.0212,-0.0009,0
23723003,0.6447,-0.0050,-0.0137,0.7643,0.0047,0.0097,-0.0454,0
23723170,0.6447,-0.0050,-0.0137,0.7643,0.0124,-0.0042,-0.0256,0
23723337,0.6447,-0.0050,-0.0136,0.7643,0.0035,-0.0026,-0.0365,0
23723503,0.6447,-0.0050,-0.0136,0.7643,-0.0127,0.0040,-0.0329,0
23723670,0.6448,-0.0050,-0.0136,0.7643,0.0086,0.0203,-0.0426,0
23723837,0.6448,-0.0050,-0.0136,0.7643,-0.0010,0.0235,-0.0168,0
23724003,0.6447,-0.0050,-0.0136,0.7643,0.0001,0.0067,-0.0573,0
23724170,0.6448,-0.0050,-0.0137,0.7643,0.0042,0.0091,-0.0322,0
23724337,0.6448,-0.0050,-0.0137,0.7643,-0.0080,0.0076,-0.0243,0
23724503,0.6447,-0.0050,-0.0136,0.7643,-0.0078,0.0174,-0.0213,0
23724670,0.6447,-0.0050,-0.0136,0.7643,0.0066,0.0015,-0.0508,0
23724837,0.6447,-0.0050,-0.0137,0.7643,-0.0095,0.0042,-0.0524,0
23725003,0.6447,-0.0050,-0.0137,0.7643,-0.0110,0.0099,-0.0329,0
23725170,0.6447,-0.0050,-0.0137,0.7643,-0.0071,0.0036,-0.0459,0
23725337,0.6447,-0.0050,-0.0137,0.7643,-0.0044,0.0057,-0.0353,0
23725503,0.6447,-0.0050,-0.0137,0.7643,0.0113,0.0146,-0.0475,0
23725670,0.6447,-0.0050,-0.0137,0.7643,0.0015,-0.0039,-0.0295,0
23725837,0.6448,-0.0050,-0.0137,0.7643,0.0007,0.0005,-0.0343,0
23726003,0.6448,-0.0050,-0.0137,0.7643,0.0082,0.0113,-0.0316,0
23726170,0.6448,-0.0050,-0.0137,0.7643,-0.0044,-0.0008,-0.0289,0
23726337,0.6447,-0.0050,-0.0137,0.7643,-0.0025,0.0034,-0.0263,0
23726503,0.6448,-0.0050,-0.0136,0.7643,-0.0032,-0.0070,-0.0430,0
23726670,0.6448,-0.0050,-0.0136,0.7643,-0.0071,0.0114,-0.0384,0
23726837,0.6447,-0.0050,-0.0136,0.7643,-0.0072,0.0135,-0.0435,0
23727003,0.6448,-0.0050,-0.0136,0.7643,0.0004,0.0052,-0.0266,0
23727170,0.6448,-0.0050,-0.0136,0.7643,-0.0029,-0.0074,-0.0368,0
23727337,0.6448,-0.0050,-0.0136,0.7642,0.0039,0.0006,-0.0195,0
23727503,0.6448,-0.0050,-0.0136,0.7642,-0.0040,-0.0110,-0.0386,0
23727670,0.6448,-0.0050,-0.0136,0.7642,-0.0104,-0.0016,-0.0261,0
23727837,0.6448,-0.0050,-0.0136,0.7642,0.0001,0.0047,-0.0234,0
23728003,0.6448,-0.0050,-0.0136,0.7643,0.0028,0.0074,-0.0339,0
23728170,0.6447,-0.0050,-0.0136,0.7643,0.0051,-0.0052,-0.0398,0
23728337,0.6447,-0.0050,-0.0136,0.7643,0.0075,-0.0067,-0.0268,0
23728503,0.6447,-0.0050,-0.0136,0.7643,0.0061,0.0130,-0.0239,0
23728670,0.6447,-0.0050,-0.0136,0.7643,0.0102,0.0034,-0.0253,0
23728837,0.6448,-0.0050,-0.0136,0.7643,-0.0057,0.0091,-0.0177,0
23729003,0.6447,-0.0050,-0.0136,0.7643,0.0000,-0.0016,-0.0269,0
23729170,0.6447,-0.0050,-0.0136,0.7643,0.0087,0.0042,-0.0231,0
23729337,0.6447,-0.0050,-0.0137,0.7643,0.0102,-0.0085,-0.0485,0
23729503,0.6447,-0.0050,-0.0136,0.7643,0.0109,0.0171,-0.0348,0
23729670,0.6447,-0.0050,-0.0137,0.7643,-0.0014,0.0239,-0.0298,0
23729837,0.6447,-0.0050,-0.0137,0.7643,0.0034,-0.0041,-0.0145,0
23730003,0.6448,-0.0050,-0.0137,0.7643,-0.0004,0.0012,-0.0586,0
23730170,0.6448,-0.0050,-0.0136,0.7643,-0.0011,-0.0068,-0.0278,0
23730337,0.6448,-0.0050,-0.0136,0.7643,-0.0080,0.0004,-0.0301,0
23730503,0.6448,-0.0050,-0.0136,0.7643,0.0125,0.0099,-0.0563,0
23730670,0.6448,-0.0050,-0.0136,0.7642,-0.0010,0.0224,-0.0363,0
23730837,0.6448,-0.0050,-0.0136,0.7642,0.0101,0.0103,-0.0237,0
23731003,0.6448,-0.0050,-0.0136,0.7642,0.0099,0.0051,-0.0466,0
23731170,0.6448,-0.0050,-0.0137,0.7642,-0.0107,0.0058,-0.0212,0
23731337,0.6448,-0.0050,-0.0137,0.7642,0.0015,-0.0129,-0.0110,0
23731503,0.6448,-0.0050,-0.0137,0.7642,0.0023,0.0078,-0.0328,0
23731670,0.6448,-0.0050,-0.0137,0.7642,0.0035,0.0039,-0.0302,0
23731837,0.6448,-0.0050,-0.0137,0.7642,-0.0031,0.0004,-0.0262,0
23732003,0.6448,-0.0050,-0.0137,0.7642,0.0047,-0.0014,-0.0311,0
23732170,0.6448,-0.0050,-0.0137,0.7642,0.0100,0.0034,-0.0377,0
23732337,0.6448,-0.0050,-0.0137,0.7642,-0.0017,-0.0082,-0.0578,0
23732503,0.6448,-0.0050,-0.0137,0.7643,-0.0097,0.0072,-0.0252,0
23732670,0.6447,-0.0050,-0.0137,0.7643,-0.0055,-0.0056,-0.0476,0
23732837,0.6448,-0.0050,-0.0137,0.7643,0.0093,-0.0088,-0.0454,0
23733003,0.6447,-0.0050,-0.0137,0.7643,0.0103,-0.0081,-0.0655,0
23733170,0.6447,-0.0050,-0.0137,0.7643,0.0031,0.0038,-0.0026,0
23733337,0.6447,-0.0050,-0.0137,0.7643,0.0050,0.0062,-0.0348,0
23733503,0.6447,-0.0050,-0.0137,0.7643,0.0121,0.0072,-0.0386,0
23733670,0.6447,-0.0050,-0.0137,0.7643,0.0009,0.0081,-0.0479,0
23733837,0.6447,-0.0050,-0.0137,0.7643,0.0042,-0.0038,-0.0597,0
23734003,0.6447,-0.0050,-0.0137,0.7643,-0.0038,0.0040,0.0006,0
23734170,0.6447,-0.0050,-0.0137,0.7643,-0.0016,0.0073,-0.0493,0
23734337,0.6447,-0.0050,-0.0137,0.7643,0.0119,0.0115,-0.0456,0
23734503,0.6447,-0.0050,-0.0137,0.7643,0.0089,-0.0051,-0.0218,0
23734670,0.6447,-0.0050,-0.0137,0.7643,-0.0010,0.0019,-0.0307,0
23734837,0.6447,-0.0050,-0.0137,0.7643,0.0109,-0.0001,-0.0465,0
23735003,0.6447,-0.0050,-0.0137,0.7643,-0.0069,-0.0152,-0.0306,0
23735170,0.6447,-0.0050,-0.0137,0.7643,-0.0010,0.0043,-0.0353,0
23735337,0.6447,-0.0050,-0.0137,0.7643,0.0032,0.0039,-0.0448,0
23735503,0.6447,-0.0050,-0.0137,0.7643,0.0012,-0.0034,-0.0326,0
23735670,0.6447,-0.0050,-0.0137,0.7643,0.0020,-0.0005,-0.0398,0
23735837,0.6447,-0.0050,-0.0137,0.7643,-0.0087,0.0024,-0.0006,0
23736003,0.6447,-0.0050,-0.0137,0.7643,-0.0085,0.0040,-0.0539,0
23736170,0.6447,-0.0050,-0.0137,0.7643,-0.0108,-0.0029,-0.0519,0
23736337,0.6447,-0.0050,-0.0137,0.7643,0.0077,-0.0112,-0.0547,0
23736503,0.6447,-0.0050,-0.0137,0.7643,-0.0009,-0.0029,-0.0300,0
23736670,0.6447,-0.0050,-0.0137,0.7643,-0.0011,0.0025,-0.0411,0
23736837,0.6447,-0.0050,-0.0137,0.7643,-0.0061,-0.0003,-0.0352,0
23737003,0.6447,-0.0050,-0.0137,0.7643,0.0063,-0.0127,-0.0473,0
23737170,0.6447,-0.0050,-0.0137,0.7643,0.0046,0.0008,-0.0325,0
23737337,0.6447,-0.0050,-0.0137,0.7643,0.0010,0.0050,-0.0273,0
23737503,0.6447,-0.0050,-0.0137,0.7643,-0.0023,-0.0011,-0.0466,0
23737670,0.6447,-0.0050,-0.0137,0.7643,-0.0073,0.0056,-0.0311,0
23737837,0.6447,-0.0050,-0.0137,0.7643,-0.0054,-0.0015,-0.0471,0
23738003,0.6447,-0.0050,-0.0137,0.7643,0.0155,0.0072,-0.0140,0
23738170,0.6447,-0.0050,-0.0137,0.7643,0.0004,0.0011,-0.0354,0
23738337,0.6447,-0.0050,-0.0137,0.7643,0.0070,-0.0027,-0.0347,0
23738503,0.6447,-0.0050,-0.0137,0.7643,-0.0060,-0.0074,-0.0398,0
23738670,0.6447,-0.0050,-0.0137,0.7643,-0.0065,0.0054,-0.0234,0
23738837,0.6447,-0.0050,-0.0137,0.7643,-0.0013,-0.0037,-0.0373,0
23739003,0.6447,-0.0050,-0.0137,0.7643,0.0135,0.0087,-0.0581,0
23739170,0.6447,-0.0050,-0.0137,0.7643,-0.0071,0.0103,-0.0415,0
23739337,0.6447,-0.0050,-0.0137,0.7643,-0.0070,0.0097,-0.0255,0
23739504,0.6447,-0.0050,-0.0137,0.7643,-0.0016,0.0030,-0.0339,0
23739670,0.6447,-0.0050,-0.0137,0.7643,0.0071,0.0002,-0.0433,0
23739837,0.6447,-0.0050,-0.0137,0.7643,0.0068,-0.0112,-0.0238,0
23740004,0.6447,-0.0050,-0.0137,0.7643,0.0031,0.0006,-0.0498,0
